Folder: Thin-film-diagnosis-data (part 3)

File: THF_UV_VIS_30mM.txt
"20-30mM-1_THF30mM - RawData"
"Wavelength nm."	"Abs."
300.00	0.3006
311.00	0.3103
322.00	0.3346
333.00	0.3630
344.00	0.4018
355.00	0.4407
366.00	0.4891
377.00	0.5591
388.00	0.6597
399.00	0.7399
410.00	0.8158
421.00	0.8236
432.00	0.7685
443.00	0.7520
454.00	0.7710
465.00	0.8093
476.00	0.8419
487.00	0.8675
498.00	0.8811
509.00	0.8825
520.00	0.8675
531.00	0.8436
542.00	0.8121
553.00	0.7774
564.00	0.7401
575.00	0.6976
586.00	0.6506
597.00	0.6011
608.00	0.5562
619.00	0.5229
630.00	0.5033
641.00	0.4946
652.00	0.4948
663.00	0.5017
674.00	0.5121
685.00	0.5238
696.00	0.5282
707.00	0.5306
718.00	0.5329
729.00	0.5407
740.00	0.5599
751.00	0.5808
762.00	0.5926
773.00	0.5860
784.00	0.5561
795.00	0.5302
806.00	0.5032
817.00	0.4896
828.00	0.4922
839.00	0.5099
850.00	0.5364
861.00	0.5378
872.00	0.5258
883.00	0.4883
894.00	0.4354
905.00	0.3901
916.00	0.3528
927.00	0.3200
938.00	0.2929
949.00	0.2680
960.00	0.2462
971.00	0.2266
982.00	0.2085
993.00	0.1920
1004.00	0.1774
1015.00	0.1641
1026.00	0.1525
1037.00	0.1420
1048.00	0.1338
1059.00	0.1273
1070.00	0.1204
1081.00	0.1153
1092.00	0.1117
1103.00	0.1090
1114.00	0.1069
1125.00	0.1052
1136.00	0.1045
1147.00	0.1046
1158.00	0.1042
1169.00	0.1046
1180.00	0.1053
1191.00	0.1063
1202.00	0.1080
1213.00	0.1098
1224.00	0.1109
1235.00	0.1139
1246.00	0.1164
1257.00	0.1189
1268.00	0.1217
1279.00	0.1250
1290.00	0.1282
1301.00	0.1324
1312.00	0.1365
1323.00	0.1403
1334.00	0.1448
1345.00	0.1498
1356.00	0.1554
1367.00	0.1621
1378.00	0.1684
1389.00	0.1747
1400.00	0.1824
1411.00	0.1896
1422.00	0.1963
1433.00	0.2048
1444.00	0.2122
1455.00	0.2193
1466.00	0.2282
1477.00	0.2372
1488.00	0.2453
1499.00	0.2540
1510.00	0.2638
1521.00	0.2725
1532.00	0.2820
1543.00	0.2907
1554.00	0.3005
1565.00	0.3097
1576.00	0.3191
1587.00	0.3289
1598.00	0.3383
1609.00	0.3470
1620.00	0.3560
1631.00	0.3640
1642.00	0.3702
1653.00	0.3721
1664.00	0.3763
1675.00	0.3836
1686.00	0.3897
1697.00	0.3962
1708.00	0.4025
1719.00	0.4090
1730.00	0.4154
1741.00	0.4210
1752.00	0.4264
1763.00	0.4314
1774.00	0.4366
1785.00	0.4426
1796.00	0.4464
1807.00	0.4513
1818.00	0.4547
1829.00	0.4587
1840.00	0.4624
1851.00	0.4641
1862.00	0.4684
1873.00	0.4714
1884.00	0.4730
1895.00	0.4746
1906.00	0.4799
1917.00	0.4800
1928.00	0.4823
1939.00	0.4838
1950.00	0.4851
1961.00	0.4867
1972.00	0.4880
1983.00	0.4883
1994.00	0.4898
2005.00	0.4906
2016.00	0.4912
2027.00	0.4917
2038.00	0.4923
2049.00	0.4931
2060.00	0.4950
2071.00	0.4956
2082.00	0.4949
2093.00	0.4947
2104.00	0.4948
2115.00	0.4942
2126.00	0.4943
2137.00	0.4944
2148.00	0.4934
2159.00	0.4935
2170.00	0.4920
2181.00	0.4920
2192.00	0.4903
2203.00	0.4916
2214.00	0.4893
2225.00	0.4884
2236.00	0.4871
2247.00	0.4859
2258.00	0.4855
2269.00	0.4843
2280.00	0.4822
2291.00	0.4819
2302.00	0.4804
2313.00	0.4792
2324.00	0.4782
2335.00	0.4770
2346.00	0.4751
2357.00	0.4740
2368.00	0.4725
2379.00	0.4714
2390.00	0.4694
2401.00	0.4675
2412.00	0.4669
2423.00	0.4650
2434.00	0.4645
2445.00	0.4618
2456.00	0.4620
2467.00	0.4595
2478.00	0.4582
2489.00	0.4569
2500.00	0.4533
2511.00	0.4490
2522.00	0.4481
2533.00	0.4474
2544.00	0.4456
2555.00	0.4435
2566.00	0.4427
2577.00	0.4403
2588.00	0.4383
2599.00	0.4351
2610.00	0.4374
2621.00	0.4332
2632.00	0.4336
2643.00	0.4314
2654.00	0.4272
2665.00	0.4262
2676.00	0.4380
2687.00	0.4438
2698.00	0.4749
2709.00	0.5164
2720.00	0.5547
2731.00	0.5479
2742.00	0.5174
2753.00	0.4778
2764.00	0.4583
2775.00	0.4328
2786.00	0.4199
2797.00	0.4125
2808.00	0.4055
2819.00	0.4017
2830.00	0.3999
2841.00	0.3981
2852.00	0.3970
2863.00	0.3957
2874.00	0.3945
2885.00	0.3928
2896.00	0.3912
2907.00	0.3896
2918.00	0.3876
2929.00	0.3872
2940.00	0.3859
2951.00	0.3835
2962.00	0.3835
2973.00	0.3823
2984.00	0.3804
2995.00	0.3797
3006.00	0.3823
3017.00	0.3814
3028.00	0.3806
3039.00	0.3794
3050.00	0.3767
3061.00	0.3761
3072.00	0.3752
3083.00	0.3736
3094.00	0.3718
3105.00	0.3704
3116.00	0.3700
3127.00	0.3670
3138.00	0.3657
3149.00	0.3648
3160.00	0.3616
3171.00	0.3606
3182.00	0.3590
3193.00	0.3593
3204.00	0.3561
3215.00	0.3510
3226.00	0.3517
3237.00	0.3539
3248.00	0.3500
3259.00	0.3532
3270.00	0.3395
3281.00	0.3407
3292.00	0.3497
3300.00	0.3657

File: Tol_UV_VIS_0mM.txt
"20-30mM-1_Toluene0mM - RawData"
"Wavelength nm."	"Abs."
300.00	0.1095
311.00	0.1021
322.00	0.1029
333.00	0.1071
344.00	0.1198
355.00	0.1336
366.00	0.1478
377.00	0.1660
388.00	0.1873
399.00	0.2130
410.00	0.2431
421.00	0.2796
432.00	0.3222
443.00	0.3726
454.00	0.4313
465.00	0.4937
476.00	0.5502
487.00	0.6031
498.00	0.6428
509.00	0.6714
520.00	0.6762
531.00	0.6595
542.00	0.6370
553.00	0.6058
564.00	0.5428
575.00	0.4625
586.00	0.4021
597.00	0.3652
608.00	0.3157
619.00	0.2408
630.00	0.1710
641.00	0.1264
652.00	0.1052
663.00	0.0941
674.00	0.0891
685.00	0.0850
696.00	0.0821
707.00	0.0811
718.00	0.0783
729.00	0.0756
740.00	0.0747
751.00	0.0734
762.00	0.0720
773.00	0.0712
784.00	0.0687
795.00	0.0645
806.00	0.0544
817.00	0.0496
828.00	0.0482
839.00	0.0481
850.00	0.0472
861.00	0.0462
872.00	0.0451
883.00	0.0447
894.00	0.0434
905.00	0.0426
916.00	0.0418
927.00	0.0407
938.00	0.0407
949.00	0.0401
960.00	0.0393
971.00	0.0390
982.00	0.0385
993.00	0.0380
1004.00	0.0372
1015.00	0.0348
1026.00	0.0360
1037.00	0.0351
1048.00	0.0344
1059.00	0.0346
1070.00	0.0338
1081.00	0.0331
1092.00	0.0329
1103.00	0.0326
1114.00	0.0318
1125.00	0.0311
1136.00	0.0307
1147.00	0.0305
1158.00	0.0305
1169.00	0.0300
1180.00	0.0294
1191.00	0.0293
1202.00	0.0285
1213.00	0.0287
1224.00	0.0284
1235.00	0.0277
1246.00	0.0275
1257.00	0.0271
1268.00	0.0269
1279.00	0.0260
1290.00	0.0258
1301.00	0.0255
1312.00	0.0250
1323.00	0.0237
1334.00	0.0237
1345.00	0.0236
1356.00	0.0235
1367.00	0.0239
1378.00	0.0250
1389.00	0.0246
1400.00	0.0244
1411.00	0.0232
1422.00	0.0232
1433.00	0.0225
1444.00	0.0217
1455.00	0.0214
1466.00	0.0213
1477.00	0.0210
1488.00	0.0205
1499.00	0.0202
1510.00	0.0205
1521.00	0.0203
1532.00	0.0199
1543.00	0.0194
1554.00	0.0195
1565.00	0.0194
1576.00	0.0193
1587.00	0.0194
1598.00	0.0191
1609.00	0.0192
1620.00	0.0189
1631.00	0.0197
1642.00	0.0185
1653.00	0.0147
1664.00	0.0133
1675.00	0.0129
1686.00	0.0126
1697.00	0.0119
1708.00	0.0114
1719.00	0.0122
1730.00	0.0127
1741.00	0.0122
1752.00	0.0120
1763.00	0.0120
1774.00	0.0121
1785.00	0.0122
1796.00	0.0125
1807.00	0.0116
1818.00	0.0115
1829.00	0.0124
1840.00	0.0123
1851.00	0.0107
1862.00	0.0118
1873.00	0.0118
1884.00	0.0104
1895.00	0.0106
1906.00	0.0119
1917.00	0.0117
1928.00	0.0118
1939.00	0.0116
1950.00	0.0114
1961.00	0.0115
1972.00	0.0112
1983.00	0.0110
1994.00	0.0113
2005.00	0.0117
2016.00	0.0107
2027.00	0.0108
2038.00	0.0112
2049.00	0.0108
2060.00	0.0107
2071.00	0.0109
2082.00	0.0102
2093.00	0.0096
2104.00	0.0103
2115.00	0.0101
2126.00	0.0105
2137.00	0.0102
2148.00	0.0108
2159.00	0.0100
2170.00	0.0108
2181.00	0.0112
2192.00	0.0125
2203.00	0.0149
2214.00	0.0149
2225.00	0.0132
2236.00	0.0141
2247.00	0.0141
2258.00	0.0136
2269.00	0.0129
2280.00	0.0116
2291.00	0.0108
2302.00	0.0108
2313.00	0.0100
2324.00	0.0111
2335.00	0.0102
2346.00	0.0097
2357.00	0.0097
2368.00	0.0090
2379.00	0.0098
2390.00	0.0096
2401.00	0.0107
2412.00	0.0100
2423.00	0.0090
2434.00	0.0093
2445.00	0.0105
2456.00	0.0098
2467.00	0.0098
2478.00	0.0105
2489.00	0.0101
2500.00	0.0105
2511.00	0.0122
2522.00	0.0127
2533.00	0.0131
2544.00	0.0142
2555.00	0.0123
2566.00	0.0152
2577.00	0.0148
2588.00	0.0153
2599.00	0.0128
2610.00	0.0160
2621.00	0.0161
2632.00	0.0182
2643.00	0.0191
2654.00	0.0189
2665.00	0.0201
2676.00	0.0435
2687.00	0.0791
2698.00	0.1735
2709.00	0.2363
2720.00	0.2683
2731.00	0.2634
2742.00	0.2313
2753.00	0.2090
2764.00	0.1750
2775.00	0.1448
2786.00	0.1203
2797.00	0.1002
2808.00	0.0781
2819.00	0.0623
2830.00	0.0504
2841.00	0.0414
2852.00	0.0344
2863.00	0.0291
2874.00	0.0259
2885.00	0.0228
2896.00	0.0199
2907.00	0.0177
2918.00	0.0161
2929.00	0.0142
2940.00	0.0130
2951.00	0.0123
2962.00	0.0112
2973.00	0.0114
2984.00	0.0109
2995.00	0.0104
3006.00	0.0203
3017.00	0.0217
3028.00	0.0213
3039.00	0.0210
3050.00	0.0208
3061.00	0.0215
3072.00	0.0218
3083.00	0.0220
3094.00	0.0217
3105.00	0.0214
3116.00	0.0208
3127.00	0.0190
3138.00	0.0188
3149.00	0.0184
3160.00	0.0180
3171.00	0.0181
3182.00	0.0197
3193.00	0.0197
3204.00	0.0203
3215.00	0.0203
3226.00	0.0213
3237.00	0.0200
3248.00	0.0177
3259.00	0.0185
3270.00	0.0170
3281.00	0.0168
3292.00	0.0194
3300.00	0.0338

File: Tol_UV_VIS_20mM.txt
"20-30mM-1_Toluene20mM - RawData"
"Wavelength nm."	"Abs."
300.00	0.1367
311.00	0.1407
322.00	0.1579
333.00	0.1774
344.00	0.2028
355.00	0.2223
366.00	0.2395
377.00	0.2630
388.00	0.2983
399.00	0.3313
410.00	0.3655
421.00	0.3781
432.00	0.3638
443.00	0.3665
454.00	0.3856
465.00	0.4095
476.00	0.4267
487.00	0.4436
498.00	0.4503
509.00	0.4489
520.00	0.4356
531.00	0.4189
542.00	0.3975
553.00	0.3768
564.00	0.3562
575.00	0.3336
586.00	0.3089
597.00	0.2838
608.00	0.2607
619.00	0.2437
630.00	0.2329
641.00	0.2274
652.00	0.2262
663.00	0.2273
674.00	0.2328
685.00	0.2369
696.00	0.2395
707.00	0.2412
718.00	0.2434
729.00	0.2452
740.00	0.2523
751.00	0.2602
762.00	0.2665
773.00	0.2676
784.00	0.2592
795.00	0.2488
806.00	0.2342
817.00	0.2270
828.00	0.2278
839.00	0.2343
850.00	0.2448
861.00	0.2488
872.00	0.2493
883.00	0.2404
894.00	0.2235
905.00	0.2071
916.00	0.1931
927.00	0.1796
938.00	0.1683
949.00	0.1576
960.00	0.1478
971.00	0.1386
982.00	0.1297
993.00	0.1210
1004.00	0.1126
1015.00	0.1053
1026.00	0.0982
1037.00	0.0920
1048.00	0.0859
1059.00	0.0813
1070.00	0.0762
1081.00	0.0718
1092.00	0.0684
1103.00	0.0655
1114.00	0.0629
1125.00	0.0610
1136.00	0.0593
1147.00	0.0580
1158.00	0.0570
1169.00	0.0566
1180.00	0.0562
1191.00	0.0562
1202.00	0.0556
1213.00	0.0565
1224.00	0.0572
1235.00	0.0572
1246.00	0.0587
1257.00	0.0592
1268.00	0.0605
1279.00	0.0622
1290.00	0.0632
1301.00	0.0652
1312.00	0.0666
1323.00	0.0682
1334.00	0.0701
1345.00	0.0727
1356.00	0.0749
1367.00	0.0778
1378.00	0.0809
1389.00	0.0841
1400.00	0.0872
1411.00	0.0907
1422.00	0.0941
1433.00	0.0963
1444.00	0.1006
1455.00	0.1043
1466.00	0.1081
1477.00	0.1118
1488.00	0.1158
1499.00	0.1200
1510.00	0.1242
1521.00	0.1288
1532.00	0.1329
1543.00	0.1373
1554.00	0.1411
1565.00	0.1454
1576.00	0.1500
1587.00	0.1545
1598.00	0.1593
1609.00	0.1637
1620.00	0.1679
1631.00	0.1718
1642.00	0.1748
1653.00	0.1750
1664.00	0.1767
1675.00	0.1802
1686.00	0.1838
1697.00	0.1865
1708.00	0.1894
1719.00	0.1931
1730.00	0.1957
1741.00	0.1991
1752.00	0.2022
1763.00	0.2048
1774.00	0.2079
1785.00	0.2112
1796.00	0.2134
1807.00	0.2164
1818.00	0.2174
1829.00	0.2203
1840.00	0.2226
1851.00	0.2226
1862.00	0.2260
1873.00	0.2270
1884.00	0.2284
1895.00	0.2295
1906.00	0.2337
1917.00	0.2323
1928.00	0.2344
1939.00	0.2359
1950.00	0.2359
1961.00	0.2371
1972.00	0.2386
1983.00	0.2389
1994.00	0.2403
2005.00	0.2413
2016.00	0.2416
2027.00	0.2415
2038.00	0.2424
2049.00	0.2430
2060.00	0.2443
2071.00	0.2447
2082.00	0.2450
2093.00	0.2450
2104.00	0.2450
2115.00	0.2454
2126.00	0.2457
2137.00	0.2455
2148.00	0.2453
2159.00	0.2446
2170.00	0.2447
2181.00	0.2447
2192.00	0.2447
2203.00	0.2449
2214.00	0.2434
2225.00	0.2420
2236.00	0.2424
2247.00	0.2419
2258.00	0.2412
2269.00	0.2418
2280.00	0.2406
2291.00	0.2397
2302.00	0.2397
2313.00	0.2387
2324.00	0.2386
2335.00	0.2379
2346.00	0.2367
2357.00	0.2366
2368.00	0.2361
2379.00	0.2347
2390.00	0.2348
2401.00	0.2342
2412.00	0.2333
2423.00	0.2315
2434.00	0.2303
2445.00	0.2307
2456.00	0.2302
2467.00	0.2280
2478.00	0.2280
2489.00	0.2281
2500.00	0.2255
2511.00	0.2248
2522.00	0.2241
2533.00	0.2218
2544.00	0.2213
2555.00	0.2192
2566.00	0.2212
2577.00	0.2218
2588.00	0.2168
2599.00	0.2194
2610.00	0.2148
2621.00	0.2155
2632.00	0.2142
2643.00	0.2124
2654.00	0.2136
2665.00	0.2127
2676.00	0.2160
2687.00	0.2213
2698.00	0.2533
2709.00	0.2987
2720.00	0.3332
2731.00	0.3211
2742.00	0.2868
2753.00	0.2564
2764.00	0.2273
2775.00	0.2141
2786.00	0.2053
2797.00	0.2004
2808.00	0.1960
2819.00	0.1941
2830.00	0.1940
2841.00	0.1935
2852.00	0.1930
2863.00	0.1929
2874.00	0.1924
2885.00	0.1920
2896.00	0.1908
2907.00	0.1911
2918.00	0.1897
2929.00	0.1887
2940.00	0.1874
2951.00	0.1871
2962.00	0.1865
2973.00	0.1862
2984.00	0.1846
2995.00	0.1842
3006.00	0.1891
3017.00	0.1892
3028.00	0.1881
3039.00	0.1873
3050.00	0.1860
3061.00	0.1862
3072.00	0.1861
3083.00	0.1855
3094.00	0.1839
3105.00	0.1829
3116.00	0.1814
3127.00	0.1791
3138.00	0.1783
3149.00	0.1781
3160.00	0.1762
3171.00	0.1751
3182.00	0.1746
3193.00	0.1752
3204.00	0.1743
3215.00	0.1699
3226.00	0.1750
3237.00	0.1732
3248.00	0.1659
3259.00	0.1710
3270.00	0.1640
3281.00	0.1590
3292.00	0.1685
3300.00	0.1902

File: Tol_UV_VIS_30mM.txt
"20-30mM-1_Toluene30mM - RawData"
"Wavelength nm."	"Abs."
300.00	0.2028
311.00	0.2099
322.00	0.2261
333.00	0.2428
344.00	0.2664
355.00	0.2874
366.00	0.3115
377.00	0.3429
388.00	0.3872
399.00	0.4264
410.00	0.4660
421.00	0.4775
432.00	0.4585
443.00	0.4491
454.00	0.4551
465.00	0.4740
476.00	0.4908
487.00	0.5031
498.00	0.5076
509.00	0.5039
520.00	0.4896
531.00	0.4705
542.00	0.4478
553.00	0.4264
564.00	0.4039
575.00	0.3795
586.00	0.3544
597.00	0.3274
608.00	0.3046
619.00	0.2877
630.00	0.2772
641.00	0.2715
652.00	0.2711
663.00	0.2733
674.00	0.2787
685.00	0.2827
696.00	0.2851
707.00	0.2869
718.00	0.2882
729.00	0.2915
740.00	0.2994
751.00	0.3091
762.00	0.3161
773.00	0.3160
784.00	0.3065
795.00	0.2949
806.00	0.2797
817.00	0.2714
828.00	0.2708
839.00	0.2776
850.00	0.2908
861.00	0.2951
872.00	0.2952
883.00	0.2843
894.00	0.2642
905.00	0.2452
916.00	0.2287
927.00	0.2143
938.00	0.2014
949.00	0.1896
960.00	0.1786
971.00	0.1680
982.00	0.1580
993.00	0.1489
1004.00	0.1401
1015.00	0.1320
1026.00	0.1236
1037.00	0.1178
1048.00	0.1106
1059.00	0.1056
1070.00	0.0998
1081.00	0.0951
1092.00	0.0909
1103.00	0.0882
1114.00	0.0851
1125.00	0.0829
1136.00	0.0814
1147.00	0.0800
1158.00	0.0788
1169.00	0.0782
1180.00	0.0778
1191.00	0.0780
1202.00	0.0781
1213.00	0.0786
1224.00	0.0785
1235.00	0.0797
1246.00	0.0805
1257.00	0.0815
1268.00	0.0822
1279.00	0.0842
1290.00	0.0849
1301.00	0.0864
1312.00	0.0890
1323.00	0.0907
1334.00	0.0926
1345.00	0.0948
1356.00	0.0976
1367.00	0.1011
1378.00	0.1045
1389.00	0.1076
1400.00	0.1117
1411.00	0.1151
1422.00	0.1182
1433.00	0.1223
1444.00	0.1256
1455.00	0.1294
1466.00	0.1340
1477.00	0.1382
1488.00	0.1418
1499.00	0.1467
1510.00	0.1517
1521.00	0.1561
1532.00	0.1600
1543.00	0.1646
1554.00	0.1693
1565.00	0.1740
1576.00	0.1786
1587.00	0.1834
1598.00	0.1877
1609.00	0.1925
1620.00	0.1965
1631.00	0.2011
1642.00	0.2039
1653.00	0.2037
1664.00	0.2050
1675.00	0.2089
1686.00	0.2118
1697.00	0.2152
1708.00	0.2182
1719.00	0.2218
1730.00	0.2259
1741.00	0.2291
1752.00	0.2320
1763.00	0.2345
1774.00	0.2379
1785.00	0.2411
1796.00	0.2432
1807.00	0.2457
1818.00	0.2478
1829.00	0.2507
1840.00	0.2525
1851.00	0.2529
1862.00	0.2563
1873.00	0.2580
1884.00	0.2590
1895.00	0.2600
1906.00	0.2639
1917.00	0.2632
1928.00	0.2653
1939.00	0.2668
1950.00	0.2670
1961.00	0.2688
1972.00	0.2697
1983.00	0.2706
1994.00	0.2719
2005.00	0.2720
2016.00	0.2730
2027.00	0.2735
2038.00	0.2740
2049.00	0.2745
2060.00	0.2750
2071.00	0.2751
2082.00	0.2756
2093.00	0.2753
2104.00	0.2759
2115.00	0.2762
2126.00	0.2760
2137.00	0.2758
2148.00	0.2764
2159.00	0.2755
2170.00	0.2758
2181.00	0.2753
2192.00	0.2748
2203.00	0.2740
2214.00	0.2730
2225.00	0.2717
2236.00	0.2734
2247.00	0.2728
2258.00	0.2727
2269.00	0.2728
2280.00	0.2715
2291.00	0.2704
2302.00	0.2704
2313.00	0.2698
2324.00	0.2697
2335.00	0.2687
2346.00	0.2682
2357.00	0.2675
2368.00	0.2664
2379.00	0.2661
2390.00	0.2654
2401.00	0.2643
2412.00	0.2644
2423.00	0.2623
2434.00	0.2617
2445.00	0.2607
2456.00	0.2606
2467.00	0.2577
2478.00	0.2590
2489.00	0.2568
2500.00	0.2557
2511.00	0.2558
2522.00	0.2545
2533.00	0.2533
2544.00	0.2530
2555.00	0.2498
2566.00	0.2518
2577.00	0.2499
2588.00	0.2474
2599.00	0.2455
2610.00	0.2446
2621.00	0.2442
2632.00	0.2436
2643.00	0.2416
2654.00	0.2397
2665.00	0.2399
2676.00	0.2401
2687.00	0.2354
2698.00	0.2434
2709.00	0.2769
2720.00	0.2981
2731.00	0.2886
2742.00	0.2573
2753.00	0.2348
2764.00	0.2145
2775.00	0.2105
2786.00	0.2049
2797.00	0.2054
2808.00	0.2053
2819.00	0.2081
2830.00	0.2116
2841.00	0.2138
2852.00	0.2156
2863.00	0.2162
2874.00	0.2167
2885.00	0.2172
2896.00	0.2168
2907.00	0.2165
2918.00	0.2162
2929.00	0.2152
2940.00	0.2146
2951.00	0.2143
2962.00	0.2129
2973.00	0.2136
2984.00	0.2127
2995.00	0.2117
3006.00	0.2135
3017.00	0.2123
3028.00	0.2116
3039.00	0.2105
3050.00	0.2097
3061.00	0.2097
3072.00	0.2092
3083.00	0.2074
3094.00	0.2059
3105.00	0.2051
3116.00	0.2048
3127.00	0.2029
3138.00	0.2010
3149.00	0.1993
3160.00	0.1991
3171.00	0.1981
3182.00	0.1987
3193.00	0.1969
3204.00	0.1956
3215.00	0.1938
3226.00	0.1926
3237.00	0.1906
3248.00	0.1884
3259.00	0.1896
3270.00	0.1876
3281.00	0.1858
3292.00	0.1894
3300.00	0.1995

File: Xyl_UV_VIS_0mM.txt
"20-30mM-1_Xylene0mM - RawData"
"Wavelength nm."	"Abs."
300.00	0.0391
311.00	0.0368
322.00	0.0362
333.00	0.0357
344.00	0.0410
355.00	0.0450
366.00	0.0521
377.00	0.0567
388.00	0.0642
399.00	0.0725
410.00	0.0824
421.00	0.0945
432.00	0.1069
443.00	0.1233
454.00	0.1427
465.00	0.1648
476.00	0.1882
487.00	0.2110
498.00	0.2318
509.00	0.2510
520.00	0.2631
531.00	0.2664
542.00	0.2664
553.00	0.2672
564.00	0.2541
575.00	0.2272
586.00	0.2034
597.00	0.1916
608.00	0.1787
619.00	0.1456
630.00	0.1027
641.00	0.0679
652.00	0.0493
663.00	0.0393
674.00	0.0354
685.00	0.0305
696.00	0.0278
707.00	0.0262
718.00	0.0244
729.00	0.0227
740.00	0.0218
751.00	0.0215
762.00	0.0203
773.00	0.0189
784.00	0.0178
795.00	0.0169
806.00	0.0118
817.00	0.0095
828.00	0.0096
839.00	0.0100
850.00	0.0099
861.00	0.0095
872.00	0.0090
883.00	0.0090
894.00	0.0087
905.00	0.0083
916.00	0.0081
927.00	0.0079
938.00	0.0079
949.00	0.0078
960.00	0.0078
971.00	0.0076
982.00	0.0078
993.00	0.0077
1004.00	0.0067
1015.00	0.0073
1026.00	0.0072
1037.00	0.0068
1048.00	0.0072
1059.00	0.0075
1070.00	0.0067
1081.00	0.0061
1092.00	0.0064
1103.00	0.0064
1114.00	0.0057
1125.00	0.0054
1136.00	0.0056
1147.00	0.0059
1158.00	0.0059
1169.00	0.0057
1180.00	0.0057
1191.00	0.0061
1202.00	0.0058
1213.00	0.0060
1224.00	0.0062
1235.00	0.0059
1246.00	0.0059
1257.00	0.0057
1268.00	0.0056
1279.00	0.0056
1290.00	0.0047
1301.00	0.0049
1312.00	0.0050
1323.00	0.0038
1334.00	0.0039
1345.00	0.0041
1356.00	0.0037
1367.00	0.0047
1378.00	0.0054
1389.00	0.0044
1400.00	0.0051
1411.00	0.0050
1422.00	0.0048
1433.00	0.0045
1444.00	0.0039
1455.00	0.0040
1466.00	0.0040
1477.00	0.0037
1488.00	0.0037
1499.00	0.0038
1510.00	0.0039
1521.00	0.0043
1532.00	0.0040
1543.00	0.0040
1554.00	0.0036
1565.00	0.0041
1576.00	0.0041
1587.00	0.0039
1598.00	0.0042
1609.00	0.0041
1620.00	0.0042
1631.00	0.0045
1642.00	0.0037
1653.00	0.0008
1664.00	-0.0005
1675.00	-0.0008
1686.00	-0.0010
1697.00	-0.0013
1708.00	-0.0012
1719.00	-0.0009
1730.00	-0.0002
1741.00	6.7304e-007
1752.00	-0.0004
1763.00	-0.0001
1774.00	-0.0001
1785.00	0.0003
1796.00	-0.0000
1807.00	0.0003
1818.00	-0.0004
1829.00	0.0006
1840.00	0.0006
1851.00	-0.0004
1862.00	-0.0001
1873.00	0.0006
1884.00	-0.0005
1895.00	-0.0009
1906.00	0.0009
1917.00	0.0004
1928.00	0.0006
1939.00	0.0002
1950.00	0.0005
1961.00	0.0009
1972.00	0.0008
1983.00	0.0005
1994.00	0.0013
2005.00	0.0012
2016.00	0.0001
2027.00	0.0009
2038.00	0.0009
2049.00	0.0006
2060.00	0.0004
2071.00	0.0006
2082.00	0.0005
2093.00	-0.0001
2104.00	0.0000
2115.00	0.0002
2126.00	0.0002
2137.00	0.0003
2148.00	0.0007
2159.00	0.0006
2170.00	0.0002
2181.00	0.0008
2192.00	0.0012
2203.00	0.0018
2214.00	0.0010
2225.00	0.0010
2236.00	0.0019
2247.00	0.0019
2258.00	0.0019
2269.00	0.0024
2280.00	0.0011
2291.00	0.0003
2302.00	0.0014
2313.00	0.0006
2324.00	0.0014
2335.00	0.0011
2346.00	0.0006
2357.00	0.0011
2368.00	0.0005
2379.00	0.0009
2390.00	0.0011
2401.00	0.0010
2412.00	0.0010
2423.00	0.0008
2434.00	0.0009
2445.00	0.0010
2456.00	0.0012
2467.00	0.0012
2478.00	0.0008
2489.00	0.0006
2500.00	0.0015
2511.00	0.0025
2522.00	0.0027
2533.00	0.0022
2544.00	0.0028
2555.00	0.0013
2566.00	0.0027
2577.00	0.0031
2588.00	0.0009
2599.00	-0.0003
2610.00	0.0023
2621.00	0.0025
2632.00	0.0028
2643.00	0.0042
2654.00	0.0036
2665.00	0.0015
2676.00	0.0163
2687.00	0.0302
2698.00	0.0545
2709.00	0.0735
2720.00	0.0633
2731.00	0.0568
2742.00	0.0436
2753.00	0.0396
2764.00	0.0329
2775.00	0.0252
2786.00	0.0224
2797.00	0.0210
2808.00	0.0150
2819.00	0.0123
2830.00	0.0104
2841.00	0.0085
2852.00	0.0070
2863.00	0.0059
2874.00	0.0054
2885.00	0.0046
2896.00	0.0041
2907.00	0.0036
2918.00	0.0030
2929.00	0.0029
2940.00	0.0030
2951.00	0.0030
2962.00	0.0025
2973.00	0.0030
2984.00	0.0021
2995.00	0.0028
3006.00	0.0041
3017.00	0.0038
3028.00	0.0041
3039.00	0.0035
3050.00	0.0034
3061.00	0.0052
3072.00	0.0052
3083.00	0.0039
3094.00	0.0040
3105.00	0.0037
3116.00	0.0041
3127.00	0.0030
3138.00	0.0031
3149.00	0.0032
3160.00	0.0036
3171.00	0.0042
3182.00	0.0058
3193.00	0.0042
3204.00	0.0022
3215.00	0.0023
3226.00	0.0063
3237.00	0.0050
3248.00	0.0010
3259.00	0.0035
3270.00	0.0001
3281.00	-0.0019
3292.00	0.0049
3300.00	0.0147

File: Xyl_UV_VIS_5mM.txt
"RawData - P3h-Doped F4tcnq_Xylene-5mmol"
"Wavelength nm.","Abs."
300.00,
311.00,
322.00,
333.00,
344.00,
355.00,
366.00,
377.00,
388.00,
399.00,
410.00,
421.00,
432.00,
443.00,
454.00,
465.00,
476.00,
487.00,
498.00,
509.00,
520.00,
531.00,
542.00,
553.00,
564.00,
575.00,
586.00,
597.00,
608.00,
619.00,
630.00,
641.00,
652.00,
663.00,
674.00,
685.00,
696.00,
707.00,
718.00,
729.00,
740.00,
751.00,
762.00,
773.00,
784.00,
795.00,
806.00,
817.00,
828.00,
839.00,
850.00,
861.00,
872.00,
883.00,
894.00,
905.00,
916.00,
927.00,
938.00,
949.00,
960.00,
971.00,
982.00,
993.00,
1004.00,0.0411
1015.00,
1026.00,0.0343
1037.00,
1048.00,0.0284
1059.00,
1070.00,0.0238
1081.00,
1092.00,0.0207
1103.00,
1114.00,0.0187
1125.00,
1136.00,0.0174
1147.00,
1158.00,0.0167
1169.00,
1180.00,0.0165
1191.00,
1202.00,0.0166
1213.00,
1224.00,0.0171
1235.00,
1246.00,0.0178
1257.00,
1268.00,0.0186
1279.00,
1290.00,0.0196
1301.00,
1312.00,0.0203
1323.00,
1334.00,0.0227
1345.00,
1356.00,0.0246
1367.00,
1378.00,0.0268
1389.00,
1400.00,0.0284
1411.00,
1422.00,0.0306
1433.00,
1444.00,0.0330
1455.00,
1466.00,0.0359
1477.00,
1488.00,0.0386
1499.00,
1510.00,0.0413
1521.00,
1532.00,0.0447
1543.00,
1554.00,0.0478
1565.00,
1576.00,0.0515
1587.00,
1598.00,0.0549
1609.00,
1620.00,0.0585
1631.00,
1642.00,0.0620
1653.00,
1664.00,0.0655
1675.00,
1686.00,0.0685
1697.00,
1708.00,0.0715
1719.00,
1730.00,0.0745
1741.00,
1752.00,0.0774
1763.00,
1774.00,0.0802
1785.00,
1796.00,0.0829
1807.00,
1818.00,0.0856
1829.00,
1840.00,0.0889
1851.00,
1862.00,0.0907
1873.00,
1884.00,0.0924
1895.00,
1906.00,0.0954
1917.00,
1928.00,0.0958
1939.00,
1950.00,0.0973
1961.00,
1972.00,0.0983
1983.00,
1994.00,0.0991
2005.00,
2016.00,0.1001
2027.00,
2038.00,0.1011
2049.00,
2060.00,0.1021
2071.00,
2082.00,0.1027
2093.00,
2104.00,0.1034
2115.00,
2126.00,0.1035
2137.00,
2148.00,0.1035
2159.00,
2170.00,0.1036
2181.00,
2192.00,0.1042
2203.00,
2214.00,0.1055
2225.00,
2236.00,0.1045
2247.00,
2258.00,0.1034
2269.00,
2280.00,0.1034
2291.00,
2302.00,0.1027
2313.00,
2324.00,0.1020
2335.00,
2346.00,0.1013
2357.00,
2368.00,0.1007
2379.00,
2390.00,0.0999
2401.00,
2412.00,0.0994
2423.00,
2434.00,0.0985
2445.00,
2456.00,0.0984
2467.00,
2478.00,0.0977
2489.00,
2500.00,0.0975
2511.00,
2522.00,0.0985
2533.00,
2544.00,0.0975
2555.00,
2566.00,0.0977
2577.00,
2588.00,0.0964
2599.00,
2610.00,0.0966
2621.00,
2632.00,0.0945
2643.00,
2654.00,0.0925
2665.00,
2676.00,0.1059
2687.00,
2698.00,0.1609
2709.00,
2720.00,0.1929
2731.00,
2742.00,0.1656
2753.00,
2764.00,0.1402
2775.00,
2786.00,0.1199
2797.00,
2808.00,0.1046
2819.00,
2830.00,0.0962
2841.00,
2852.00,0.0918
2863.00,
2874.00,0.0881
2885.00,
2896.00,0.0861
2907.00,
2918.00,0.0841
2929.00,
2940.00,0.0825
2951.00,
2962.00,0.0808
2973.00,
2984.00,0.0798
2995.00,
3006.00,0.0789
3017.00,
3028.00,0.0780
3039.00,
3050.00,0.0770
3061.00,
3072.00,0.0761
3083.00,
3094.00,0.0751
3105.00,
3116.00,0.0743
3127.00,
3138.00,0.0731
3149.00,
3160.00,0.0724
3171.00,
3182.00,0.0708
3193.00,
3204.00,0.0693
3215.00,
3226.00,0.0689
3237.00,
3248.00,0.0673
3259.00,
3270.00,0.0686
3281.00,
3292.00,0.0676
3300.00,0.0694