Folder: Thin-film-diagnosis-data (part 4)

File: Xyl_UV_VIS_10mM.txt
"RawData - P3h-Doped F4tcnq_Xylene-10mmol"
"Wavelength nm.","Abs."
300.00,
311.00,
322.00,
333.00,
344.00,
355.00,
366.00,
377.00,
388.00,
399.00,
410.00,
421.00,
432.00,
443.00,
454.00,
465.00,
476.00,
487.00,
498.00,
509.00,
520.00,
531.00,
542.00,
553.00,
564.00,
575.00,
586.00,
597.00,
608.00,
619.00,
630.00,
641.00,
652.00,
663.00,
674.00,
685.00,
696.00,
707.00,
718.00,
729.00,
740.00,
751.00,
762.00,
773.00,
784.00,
795.00,
806.00,
817.00,
828.00,
839.00,
850.00,
861.00,
872.00,
883.00,
894.00,
905.00,
916.00,
927.00,
938.00,
949.00,
960.00,
971.00,
982.00,
993.00,
1004.00,0.0437
1015.00,
1026.00,0.0368
1037.00,
1048.00,0.0306
1059.00,
1070.00,0.0258
1081.00,
1092.00,0.0227
1103.00,
1114.00,0.0206
1125.00,
1136.00,0.0191
1147.00,
1158.00,0.0186
1169.00,
1180.00,0.0183
1191.00,
1202.00,0.0184
1213.00,
1224.00,0.0189
1235.00,
1246.00,0.0192
1257.00,
1268.00,0.0203
1279.00,
1290.00,0.0213
1301.00,
1312.00,0.0222
1323.00,
1334.00,0.0246
1345.00,
1356.00,0.0259
1367.00,
1378.00,0.0280
1389.00,
1400.00,0.0298
1411.00,
1422.00,0.0325
1433.00,
1444.00,0.0349
1455.00,
1466.00,0.0374
1477.00,
1488.00,0.0403
1499.00,
1510.00,0.0433
1521.00,
1532.00,0.0463
1543.00,
1554.00,0.0495
1565.00,
1576.00,0.0532
1587.00,
1598.00,0.0566
1609.00,
1620.00,0.0604
1631.00,
1642.00,0.0633
1653.00,
1664.00,0.0672
1675.00,
1686.00,0.0702
1697.00,
1708.00,0.0731
1719.00,
1730.00,0.0759
1741.00,
1752.00,0.0787
1763.00,
1774.00,0.0816
1785.00,
1796.00,0.0842
1807.00,
1818.00,0.0871
1829.00,
1840.00,0.0899
1851.00,
1862.00,0.0921
1873.00,
1884.00,0.0937
1895.00,
1906.00,0.0969
1917.00,
1928.00,0.0968
1939.00,
1950.00,0.0985
1961.00,
1972.00,0.0994
1983.00,
1994.00,0.1004
2005.00,
2016.00,0.1012
2027.00,
2038.00,0.1026
2049.00,
2060.00,0.1034
2071.00,
2082.00,0.1045
2093.00,
2104.00,0.1050
2115.00,
2126.00,0.1052
2137.00,
2148.00,0.1054
2159.00,
2170.00,0.1050
2181.00,
2192.00,0.1051
2203.00,
2214.00,0.1054
2225.00,
2236.00,0.1050
2247.00,
2258.00,0.1045
2269.00,
2280.00,0.1053
2291.00,
2302.00,0.1049
2313.00,
2324.00,0.1041
2335.00,
2346.00,0.1038
2357.00,
2368.00,0.1033
2379.00,
2390.00,0.1026
2401.00,
2412.00,0.1020
2423.00,
2434.00,0.1013
2445.00,
2456.00,0.1011
2467.00,
2478.00,0.1007
2489.00,
2500.00,0.0998
2511.00,
2522.00,0.1001
2533.00,
2544.00,0.0989
2555.00,
2566.00,0.0987
2577.00,
2588.00,0.0961
2599.00,
2610.00,0.0963
2621.00,
2632.00,0.0958
2643.00,
2654.00,0.0923
2665.00,
2676.00,0.0991
2687.00,
2698.00,0.1071
2709.00,
2720.00,0.0956
2731.00,
2742.00,0.0823
2753.00,
2764.00,0.0807
2775.00,
2786.00,0.0820
2797.00,
2808.00,0.0819
2819.00,
2830.00,0.0846
2841.00,
2852.00,0.0858
2863.00,
2874.00,0.0853
2885.00,
2896.00,0.0853
2907.00,
2918.00,0.0844
2929.00,
2940.00,0.0841
2951.00,
2962.00,0.0830
2973.00,
2984.00,0.0820
2995.00,
3006.00,0.0811
3017.00,
3028.00,0.0803
3039.00,
3050.00,0.0796
3061.00,
3072.00,0.0785
3083.00,
3094.00,0.0779
3105.00,
3116.00,0.0768
3127.00,
3138.00,0.0760
3149.00,
3160.00,0.0759
3171.00,
3182.00,0.0738
3193.00,
3204.00,0.0725
3215.00,
3226.00,0.0731
3237.00,
3248.00,0.0701
3259.00,
3270.00,0.0685
3281.00,
3292.00,0.0707
3300.00,0.0742

File: Xyl_UV_VIS_20mM.txt
"20-30mM-1_Xylene20mM - RawData"
"Wavelength nm."	"Abs."
300.00	0.1017
311.00	0.1144
322.00	0.1333
333.00	0.1496
344.00	0.1691
355.00	0.1797
366.00	0.1843
377.00	0.1889
388.00	0.1967
399.00	0.2031
410.00	0.2110
421.00	0.2155
432.00	0.2115
443.00	0.2055
454.00	0.2016
465.00	0.2037
476.00	0.2065
487.00	0.2108
498.00	0.2117
509.00	0.2117
520.00	0.2070
531.00	0.2014
542.00	0.1932
553.00	0.1864
564.00	0.1797
575.00	0.1725
586.00	0.1627
597.00	0.1530
608.00	0.1434
619.00	0.1367
630.00	0.1303
641.00	0.1266
652.00	0.1259
663.00	0.1249
674.00	0.1274
685.00	0.1285
696.00	0.1296
707.00	0.1310
718.00	0.1324
729.00	0.1319
740.00	0.1346
751.00	0.1372
762.00	0.1391
773.00	0.1399
784.00	0.1358
795.00	0.1310
806.00	0.1198
817.00	0.1159
828.00	0.1155
839.00	0.1159
850.00	0.1183
861.00	0.1183
872.00	0.1175
883.00	0.1140
894.00	0.1068
905.00	0.1001
916.00	0.0936
927.00	0.0878
938.00	0.0833
949.00	0.0775
960.00	0.0730
971.00	0.0681
982.00	0.0634
993.00	0.0592
1004.00	0.0548
1015.00	0.0508
1026.00	0.0473
1037.00	0.0441
1048.00	0.0412
1059.00	0.0394
1070.00	0.0367
1081.00	0.0349
1092.00	0.0327
1103.00	0.0321
1114.00	0.0308
1125.00	0.0303
1136.00	0.0294
1147.00	0.0290
1158.00	0.0290
1169.00	0.0286
1180.00	0.0285
1191.00	0.0287
1202.00	0.0285
1213.00	0.0291
1224.00	0.0293
1235.00	0.0296
1246.00	0.0293
1257.00	0.0302
1268.00	0.0314
1279.00	0.0310
1290.00	0.0319
1301.00	0.0324
1312.00	0.0334
1323.00	0.0339
1334.00	0.0349
1345.00	0.0356
1356.00	0.0366
1367.00	0.0378
1378.00	0.0393
1389.00	0.0403
1400.00	0.0414
1411.00	0.0428
1422.00	0.0444
1433.00	0.0454
1444.00	0.0460
1455.00	0.0480
1466.00	0.0490
1477.00	0.0500
1488.00	0.0518
1499.00	0.0536
1510.00	0.0555
1521.00	0.0571
1532.00	0.0585
1543.00	0.0600
1554.00	0.0617
1565.00	0.0634
1576.00	0.0650
1587.00	0.0669
1598.00	0.0686
1609.00	0.0704
1620.00	0.0722
1631.00	0.0739
1642.00	0.0750
1653.00	0.0737
1664.00	0.0742
1675.00	0.0754
1686.00	0.0774
1697.00	0.0781
1708.00	0.0794
1719.00	0.0819
1730.00	0.0834
1741.00	0.0846
1752.00	0.0865
1763.00	0.0873
1774.00	0.0891
1785.00	0.0906
1796.00	0.0917
1807.00	0.0934
1818.00	0.0935
1829.00	0.0955
1840.00	0.0971
1851.00	0.0966
1862.00	0.0987
1873.00	0.0997
1884.00	0.1002
1895.00	0.1006
1906.00	0.1036
1917.00	0.1033
1928.00	0.1045
1939.00	0.1055
1950.00	0.1059
1961.00	0.1066
1972.00	0.1070
1983.00	0.1080
1994.00	0.1084
2005.00	0.1098
2016.00	0.1098
2027.00	0.1105
2038.00	0.1108
2049.00	0.1110
2060.00	0.1125
2071.00	0.1130
2082.00	0.1125
2093.00	0.1139
2104.00	0.1140
2115.00	0.1134
2126.00	0.1149
2137.00	0.1148
2148.00	0.1151
2159.00	0.1150
2170.00	0.1155
2181.00	0.1156
2192.00	0.1155
2203.00	0.1149
2214.00	0.1139
2225.00	0.1140
2236.00	0.1145
2247.00	0.1154
2258.00	0.1152
2269.00	0.1156
2280.00	0.1152
2291.00	0.1152
2302.00	0.1155
2313.00	0.1158
2324.00	0.1157
2335.00	0.1159
2346.00	0.1150
2357.00	0.1155
2368.00	0.1149
2379.00	0.1155
2390.00	0.1152
2401.00	0.1153
2412.00	0.1145
2423.00	0.1139
2434.00	0.1139
2445.00	0.1134
2456.00	0.1137
2467.00	0.1130
2478.00	0.1135
2489.00	0.1128
2500.00	0.1120
2511.00	0.1125
2522.00	0.1123
2533.00	0.1110
2544.00	0.1110
2555.00	0.1086
2566.00	0.1106
2577.00	0.1101
2588.00	0.1080
2599.00	0.1089
2610.00	0.1077
2621.00	0.1078
2632.00	0.1082
2643.00	0.1068
2654.00	0.1056
2665.00	0.1054
2676.00	0.1070
2687.00	0.1041
2698.00	0.1166
2709.00	0.1513
2720.00	0.1717
2731.00	0.1644
2742.00	0.1354
2753.00	0.1138
2764.00	0.0946
2775.00	0.0865
2786.00	0.0828
2797.00	0.0824
2808.00	0.0834
2819.00	0.0861
2830.00	0.0888
2841.00	0.0911
2852.00	0.0932
2863.00	0.0945
2874.00	0.0952
2885.00	0.0957
2896.00	0.0961
2907.00	0.0964
2918.00	0.0962
2929.00	0.0963
2940.00	0.0966
2951.00	0.0967
2962.00	0.0960
2973.00	0.0971
2984.00	0.0971
2995.00	0.0967
3006.00	0.1048
3017.00	0.1061
3028.00	0.1056
3039.00	0.1051
3050.00	0.1050
3061.00	0.1055
3072.00	0.1057
3083.00	0.1052
3094.00	0.1046
3105.00	0.1039
3116.00	0.1033
3127.00	0.1021
3138.00	0.1024
3149.00	0.1015
3160.00	0.1001
3171.00	0.1004
3182.00	0.1014
3193.00	0.1015
3204.00	0.1002
3215.00	0.0974
3226.00	0.1007
3237.00	0.0990
3248.00	0.0973
3259.00	0.0956
3270.00	0.0921
3281.00	0.0917
3292.00	0.1034
3300.00	0.1270

File: Xyl_UV_VIS_30mM.txt
"20-30mM-1_Xylene30mM - RawData"
"Wavelength nm."	"Abs."
300.00	0.1387
311.00	0.1593
322.00	0.1827
333.00	0.1994
344.00	0.2192
355.00	0.2310
366.00	0.2377
377.00	0.2458
388.00	0.2570
399.00	0.2647
410.00	0.2735
421.00	0.2760
432.00	0.2675
443.00	0.2526
454.00	0.2357
465.00	0.2314
476.00	0.2303
487.00	0.2305
498.00	0.2296
509.00	0.2284
520.00	0.2234
531.00	0.2173
542.00	0.2096
553.00	0.2024
564.00	0.1948
575.00	0.1867
586.00	0.1777
597.00	0.1672
608.00	0.1574
619.00	0.1496
630.00	0.1440
641.00	0.1397
652.00	0.1384
663.00	0.1380
674.00	0.1395
685.00	0.1406
696.00	0.1412
707.00	0.1415
718.00	0.1422
729.00	0.1424
740.00	0.1450
751.00	0.1480
762.00	0.1498
773.00	0.1496
784.00	0.1462
795.00	0.1421
806.00	0.1364
817.00	0.1323
828.00	0.1312
839.00	0.1326
850.00	0.1360
861.00	0.1362
872.00	0.1348
883.00	0.1305
894.00	0.1226
905.00	0.1144
916.00	0.1076
927.00	0.1012
938.00	0.0958
949.00	0.0900
960.00	0.0847
971.00	0.0798
982.00	0.0750
993.00	0.0709
1004.00	0.0662
1015.00	0.0621
1026.00	0.0587
1037.00	0.0553
1048.00	0.0524
1059.00	0.0502
1070.00	0.0476
1081.00	0.0452
1092.00	0.0438
1103.00	0.0426
1114.00	0.0410
1125.00	0.0401
1136.00	0.0394
1147.00	0.0390
1158.00	0.0388
1169.00	0.0383
1180.00	0.0383
1191.00	0.0385
1202.00	0.0384
1213.00	0.0386
1224.00	0.0388
1235.00	0.0391
1246.00	0.0392
1257.00	0.0390
1268.00	0.0398
1279.00	0.0406
1290.00	0.0404
1301.00	0.0414
1312.00	0.0416
1323.00	0.0419
1334.00	0.0421
1345.00	0.0433
1356.00	0.0436
1367.00	0.0454
1378.00	0.0457
1389.00	0.0470
1400.00	0.0485
1411.00	0.0489
1422.00	0.0505
1433.00	0.0519
1444.00	0.0529
1455.00	0.0535
1466.00	0.0551
1477.00	0.0566
1488.00	0.0581
1499.00	0.0585
1510.00	0.0612
1521.00	0.0624
1532.00	0.0640
1543.00	0.0653
1554.00	0.0671
1565.00	0.0688
1576.00	0.0697
1587.00	0.0721
1598.00	0.0738
1609.00	0.0757
1620.00	0.0769
1631.00	0.0792
1642.00	0.0784
1653.00	0.0772
1664.00	0.0771
1675.00	0.0781
1686.00	0.0800
1697.00	0.0810
1708.00	0.0817
1719.00	0.0838
1730.00	0.0859
1741.00	0.0866
1752.00	0.0880
1763.00	0.0893
1774.00	0.0909
1785.00	0.0925
1796.00	0.0938
1807.00	0.0952
1818.00	0.0958
1829.00	0.0975
1840.00	0.0988
1851.00	0.0983
1862.00	0.1002
1873.00	0.1017
1884.00	0.1015
1895.00	0.1016
1906.00	0.1050
1917.00	0.1044
1928.00	0.1054
1939.00	0.1065
1950.00	0.1069
1961.00	0.1076
1972.00	0.1082
1983.00	0.1087
1994.00	0.1098
2005.00	0.1103
2016.00	0.1108
2027.00	0.1110
2038.00	0.1116
2049.00	0.1119
2060.00	0.1127
2071.00	0.1136
2082.00	0.1138
2093.00	0.1137
2104.00	0.1140
2115.00	0.1150
2126.00	0.1150
2137.00	0.1153
2148.00	0.1154
2159.00	0.1152
2170.00	0.1152
2181.00	0.1163
2192.00	0.1152
2203.00	0.1152
2214.00	0.1151
2225.00	0.1142
2236.00	0.1154
2247.00	0.1156
2258.00	0.1160
2269.00	0.1159
2280.00	0.1159
2291.00	0.1156
2302.00	0.1151
2313.00	0.1152
2324.00	0.1159
2335.00	0.1155
2346.00	0.1153
2357.00	0.1149
2368.00	0.1153
2379.00	0.1152
2390.00	0.1155
2401.00	0.1149
2412.00	0.1148
2423.00	0.1138
2434.00	0.1134
2445.00	0.1142
2456.00	0.1148
2467.00	0.1126
2478.00	0.1141
2489.00	0.1125
2500.00	0.1119
2511.00	0.1132
2522.00	0.1130
2533.00	0.1120
2544.00	0.1116
2555.00	0.1096
2566.00	0.1120
2577.00	0.1113
2588.00	0.1089
2599.00	0.1093
2610.00	0.1083
2621.00	0.1089
2632.00	0.1093
2643.00	0.1074
2654.00	0.1057
2665.00	0.1050
2676.00	0.1084
2687.00	0.1030
2698.00	0.1204
2709.00	0.1525
2720.00	0.1869
2731.00	0.1677
2742.00	0.1447
2753.00	0.1184
2764.00	0.0973
2775.00	0.0863
2786.00	0.0823
2797.00	0.0826
2808.00	0.0827
2819.00	0.0851
2830.00	0.0879
2841.00	0.0911
2852.00	0.0934
2863.00	0.0955
2874.00	0.0962
2885.00	0.0968
2896.00	0.0975
2907.00	0.0978
2918.00	0.0983
2929.00	0.0977
2940.00	0.0977
2951.00	0.0975
2962.00	0.0975
2973.00	0.0984
2984.00	0.0977
2995.00	0.0972
3006.00	0.0998
3017.00	0.0998
3028.00	0.0997
3039.00	0.0998
3050.00	0.0988
3061.00	0.0993
3072.00	0.0996
3083.00	0.0979
3094.00	0.0979
3105.00	0.0975
3116.00	0.0970
3127.00	0.0963
3138.00	0.0958
3149.00	0.0945
3160.00	0.0934
3171.00	0.0927
3182.00	0.0947
3193.00	0.0955
3204.00	0.0957
3215.00	0.0935
3226.00	0.0965
3237.00	0.0947
3248.00	0.0908
3259.00	0.0902
3270.00	0.0888
3281.00	0.0892
3292.00	0.0960
3300.00	0.1096