Folder: Thin-film-diagnosis-data (part 2)

File: CF_UV_VIS_20mM.txt
"20-30mM-CF20mM - RawData"
"Wavelength nm."	"Abs."
300.00	0.1107
311.00	0.1229
322.00	0.1437
333.00	0.1655
344.00	0.1914
355.00	0.2067
366.00	0.2165
377.00	0.2245
388.00	0.2362
399.00	0.2468
410.00	0.2605
421.00	0.2653
432.00	0.2585
443.00	0.2548
454.00	0.2563
465.00	0.2644
476.00	0.2737
487.00	0.2797
498.00	0.2828
509.00	0.2826
520.00	0.2761
531.00	0.2668
542.00	0.2553
553.00	0.2453
564.00	0.2351
575.00	0.2241
586.00	0.2116
597.00	0.1975
608.00	0.1844
619.00	0.1739
630.00	0.1668
641.00	0.1622
652.00	0.1611
663.00	0.1609
674.00	0.1634
685.00	0.1650
696.00	0.1661
707.00	0.1667
718.00	0.1690
729.00	0.1687
740.00	0.1721
751.00	0.1758
762.00	0.1788
773.00	0.1797
784.00	0.1749
795.00	0.1693
806.00	0.1595
817.00	0.1546
828.00	0.1535
839.00	0.1558
850.00	0.1604
861.00	0.1612
872.00	0.1608
883.00	0.1565
894.00	0.1468
905.00	0.1372
916.00	0.1281
927.00	0.1198
938.00	0.1123
949.00	0.1053
960.00	0.0983
971.00	0.0920
982.00	0.0860
993.00	0.0802
1004.00	0.0744
1015.00	0.0691
1026.00	0.0646
1037.00	0.0603
1048.00	0.0565
1059.00	0.0540
1070.00	0.0505
1081.00	0.0473
1092.00	0.0459
1103.00	0.0438
1114.00	0.0426
1125.00	0.0414
1136.00	0.0407
1147.00	0.0398
1158.00	0.0396
1169.00	0.0392
1180.00	0.0392
1191.00	0.0395
1202.00	0.0395
1213.00	0.0402
1224.00	0.0407
1235.00	0.0409
1246.00	0.0416
1257.00	0.0419
1268.00	0.0423
1279.00	0.0438
1290.00	0.0447
1301.00	0.0458
1312.00	0.0469
1323.00	0.0479
1334.00	0.0493
1345.00	0.0505
1356.00	0.0526
1367.00	0.0543
1378.00	0.0561
1389.00	0.0582
1400.00	0.0601
1411.00	0.0624
1422.00	0.0641
1433.00	0.0668
1444.00	0.0684
1455.00	0.0699
1466.00	0.0728
1477.00	0.0746
1488.00	0.0771
1499.00	0.0795
1510.00	0.0825
1521.00	0.0850
1532.00	0.0875
1543.00	0.0898
1554.00	0.0927
1565.00	0.0951
1576.00	0.0974
1587.00	0.0999
1598.00	0.1030
1609.00	0.1056
1620.00	0.1081
1631.00	0.1105
1642.00	0.1121
1653.00	0.1129
1664.00	0.1138
1675.00	0.1159
1686.00	0.1187
1697.00	0.1204
1708.00	0.1219
1719.00	0.1243
1730.00	0.1260
1741.00	0.1279
1752.00	0.1298
1763.00	0.1315
1774.00	0.1334
1785.00	0.1350
1796.00	0.1365
1807.00	0.1380
1818.00	0.1389
1829.00	0.1407
1840.00	0.1416
1851.00	0.1414
1862.00	0.1445
1873.00	0.1446
1884.00	0.1455
1895.00	0.1467
1906.00	0.1485
1917.00	0.1481
1928.00	0.1500
1939.00	0.1504
1950.00	0.1505
1961.00	0.1515
1972.00	0.1521
1983.00	0.1529
1994.00	0.1527
2005.00	0.1538
2016.00	0.1538
2027.00	0.1543
2038.00	0.1548
2049.00	0.1550
2060.00	0.1556
2071.00	0.1556
2082.00	0.1562
2093.00	0.1556
2104.00	0.1565
2115.00	0.1562
2126.00	0.1560
2137.00	0.1564
2148.00	0.1565
2159.00	0.1556
2170.00	0.1561
2181.00	0.1560
2192.00	0.1550
2203.00	0.1539
2214.00	0.1532
2225.00	0.1529
2236.00	0.1530
2247.00	0.1529
2258.00	0.1533
2269.00	0.1531
2280.00	0.1531
2291.00	0.1534
2302.00	0.1527
2313.00	0.1524
2324.00	0.1525
2335.00	0.1525
2346.00	0.1515
2357.00	0.1510
2368.00	0.1507
2379.00	0.1507
2390.00	0.1500
2401.00	0.1495
2412.00	0.1488
2423.00	0.1480
2434.00	0.1473
2445.00	0.1477
2456.00	0.1465
2467.00	0.1462
2478.00	0.1462
2489.00	0.1450
2500.00	0.1439
2511.00	0.1442
2522.00	0.1435
2533.00	0.1418
2544.00	0.1408
2555.00	0.1389
2566.00	0.1411
2577.00	0.1414
2588.00	0.1383
2599.00	0.1385
2610.00	0.1354
2621.00	0.1368
2632.00	0.1369
2643.00	0.1353
2654.00	0.1339
2665.00	0.1327
2676.00	0.1332
2687.00	0.1288
2698.00	0.1406
2709.00	0.1741
2720.00	0.1972
2731.00	0.1854
2742.00	0.1603
2753.00	0.1341
2764.00	0.1170
2775.00	0.1119
2786.00	0.1065
2797.00	0.1076
2808.00	0.1073
2819.00	0.1099
2830.00	0.1128
2841.00	0.1154
2852.00	0.1173
2863.00	0.1185
2874.00	0.1193
2885.00	0.1199
2896.00	0.1196
2907.00	0.1197
2918.00	0.1201
2929.00	0.1194
2940.00	0.1191
2951.00	0.1192
2962.00	0.1187
2973.00	0.1186
2984.00	0.1172
2995.00	0.1184
3006.00	0.1229
3017.00	0.1233
3028.00	0.1230
3039.00	0.1222
3050.00	0.1215
3061.00	0.1219
3072.00	0.1208
3083.00	0.1207
3094.00	0.1203
3105.00	0.1195
3116.00	0.1185
3127.00	0.1171
3138.00	0.1166
3149.00	0.1161
3160.00	0.1150
3171.00	0.1153
3182.00	0.1156
3193.00	0.1153
3204.00	0.1141
3215.00	0.1122
3226.00	0.1113
3237.00	0.1114
3248.00	0.1105
3259.00	0.1123
3270.00	0.1052
3281.00	0.1016
3292.00	0.1117
3300.00	0.1236

File: CF_UV_VIS_30mM.txt
"20-30mM-1_CF30mM - RawData"
"Wavelength nm."	"Abs."
300.00	0.1286
311.00	0.1398
322.00	0.1534
333.00	0.1627
344.00	0.1769
355.00	0.1881
366.00	0.1983
377.00	0.2126
388.00	0.2328
399.00	0.2520
410.00	0.2719
421.00	0.2806
432.00	0.2751
443.00	0.2739
454.00	0.2770
465.00	0.2861
476.00	0.2948
487.00	0.3007
498.00	0.3036
509.00	0.3031
520.00	0.2971
531.00	0.2883
542.00	0.2769
553.00	0.2666
564.00	0.2554
575.00	0.2437
586.00	0.2300
597.00	0.2152
608.00	0.2008
619.00	0.1905
630.00	0.1832
641.00	0.1781
652.00	0.1765
663.00	0.1776
674.00	0.1796
685.00	0.1806
696.00	0.1816
707.00	0.1826
718.00	0.1829
729.00	0.1831
740.00	0.1869
751.00	0.1920
762.00	0.1958
773.00	0.1962
784.00	0.1909
795.00	0.1834
806.00	0.1693
817.00	0.1623
828.00	0.1616
839.00	0.1645
850.00	0.1709
861.00	0.1732
872.00	0.1729
883.00	0.1676
894.00	0.1563
905.00	0.1450
916.00	0.1351
927.00	0.1257
938.00	0.1180
949.00	0.1102
960.00	0.1030
971.00	0.0960
982.00	0.0899
993.00	0.0839
1004.00	0.0781
1015.00	0.0726
1026.00	0.0681
1037.00	0.0635
1048.00	0.0596
1059.00	0.0564
1070.00	0.0531
1081.00	0.0503
1092.00	0.0483
1103.00	0.0470
1114.00	0.0450
1125.00	0.0437
1136.00	0.0429
1147.00	0.0425
1158.00	0.0420
1169.00	0.0416
1180.00	0.0419
1191.00	0.0413
1202.00	0.0416
1213.00	0.0419
1224.00	0.0426
1235.00	0.0430
1246.00	0.0436
1257.00	0.0438
1268.00	0.0448
1279.00	0.0457
1290.00	0.0465
1301.00	0.0479
1312.00	0.0489
1323.00	0.0497
1334.00	0.0511
1345.00	0.0522
1356.00	0.0536
1367.00	0.0554
1378.00	0.0577
1389.00	0.0595
1400.00	0.0615
1411.00	0.0638
1422.00	0.0656
1433.00	0.0679
1444.00	0.0689
1455.00	0.0716
1466.00	0.0737
1477.00	0.0761
1488.00	0.0788
1499.00	0.0810
1510.00	0.0840
1521.00	0.0858
1532.00	0.0885
1543.00	0.0911
1554.00	0.0937
1565.00	0.0963
1576.00	0.0983
1587.00	0.1018
1598.00	0.1042
1609.00	0.1074
1620.00	0.1097
1631.00	0.1122
1642.00	0.1133
1653.00	0.1122
1664.00	0.1130
1675.00	0.1151
1686.00	0.1168
1697.00	0.1186
1708.00	0.1207
1719.00	0.1231
1730.00	0.1250
1741.00	0.1268
1752.00	0.1287
1763.00	0.1299
1774.00	0.1320
1785.00	0.1344
1796.00	0.1353
1807.00	0.1373
1818.00	0.1376
1829.00	0.1400
1840.00	0.1414
1851.00	0.1411
1862.00	0.1442
1873.00	0.1440
1884.00	0.1446
1895.00	0.1460
1906.00	0.1486
1917.00	0.1480
1928.00	0.1499
1939.00	0.1498
1950.00	0.1500
1961.00	0.1511
1972.00	0.1517
1983.00	0.1523
1994.00	0.1527
2005.00	0.1535
2016.00	0.1536
2027.00	0.1534
2038.00	0.1548
2049.00	0.1546
2060.00	0.1558
2071.00	0.1558
2082.00	0.1563
2093.00	0.1564
2104.00	0.1566
2115.00	0.1564
2126.00	0.1566
2137.00	0.1570
2148.00	0.1563
2159.00	0.1561
2170.00	0.1560
2181.00	0.1563
2192.00	0.1555
2203.00	0.1545
2214.00	0.1539
2225.00	0.1541
2236.00	0.1535
2247.00	0.1531
2258.00	0.1541
2269.00	0.1538
2280.00	0.1534
2291.00	0.1536
2302.00	0.1533
2313.00	0.1526
2324.00	0.1530
2335.00	0.1524
2346.00	0.1519
2357.00	0.1518
2368.00	0.1507
2379.00	0.1508
2390.00	0.1498
2401.00	0.1486
2412.00	0.1489
2423.00	0.1481
2434.00	0.1478
2445.00	0.1472
2456.00	0.1465
2467.00	0.1454
2478.00	0.1455
2489.00	0.1448
2500.00	0.1439
2511.00	0.1446
2522.00	0.1445
2533.00	0.1429
2544.00	0.1423
2555.00	0.1402
2566.00	0.1419
2577.00	0.1420
2588.00	0.1393
2599.00	0.1386
2610.00	0.1369
2621.00	0.1375
2632.00	0.1371
2643.00	0.1357
2654.00	0.1357
2665.00	0.1338
2676.00	0.1330
2687.00	0.1307
2698.00	0.1437
2709.00	0.1829
2720.00	0.2018
2731.00	0.1915
2742.00	0.1707
2753.00	0.1434
2764.00	0.1213
2775.00	0.1114
2786.00	0.1062
2797.00	0.1057
2808.00	0.1067
2819.00	0.1093
2830.00	0.1126
2841.00	0.1152
2852.00	0.1172
2863.00	0.1182
2874.00	0.1194
2885.00	0.1196
2896.00	0.1198
2907.00	0.1196
2918.00	0.1202
2929.00	0.1201
2940.00	0.1192
2951.00	0.1189
2962.00	0.1190
2973.00	0.1193
2984.00	0.1182
2995.00	0.1187
3006.00	0.1217
3017.00	0.1218
3028.00	0.1211
3039.00	0.1203
3050.00	0.1194
3061.00	0.1200
3072.00	0.1197
3083.00	0.1184
3094.00	0.1178
3105.00	0.1176
3116.00	0.1176
3127.00	0.1164
3138.00	0.1154
3149.00	0.1149
3160.00	0.1132
3171.00	0.1132
3182.00	0.1130
3193.00	0.1129
3204.00	0.1123
3215.00	0.1093
3226.00	0.1112
3237.00	0.1103
3248.00	0.1087
3259.00	0.1081
3270.00	0.1050
3281.00	0.1025
3292.00	0.1070
3300.00	0.1101

File: THF_UV_VIS_0mM.txt
"20-30mM-1_THF0mM - RawData"
"Wavelength nm."	"Abs."
300.00	0.1900
311.00	0.1770
322.00	0.1793
333.00	0.1899
344.00	0.2136
355.00	0.2396
366.00	0.2692
377.00	0.3055
388.00	0.3483
399.00	0.3993
410.00	0.4577
421.00	0.5261
432.00	0.6026
443.00	0.6912
454.00	0.7861
465.00	0.8822
476.00	0.9721
487.00	1.0375
498.00	1.0815
509.00	1.1080
520.00	1.1075
531.00	1.0808
542.00	1.0512
553.00	1.0095
564.00	0.9188
575.00	0.7948
586.00	0.6967
597.00	0.6339
608.00	0.5448
619.00	0.4004
630.00	0.2526
641.00	0.1481
652.00	0.0908
663.00	0.0618
674.00	0.0480
685.00	0.0367
696.00	0.0305
707.00	0.0261
718.00	0.0228
729.00	0.0196
740.00	0.0179
751.00	0.0175
762.00	0.0168
773.00	0.0157
784.00	0.0156
795.00	0.0140
806.00	0.0088
817.00	0.0072
828.00	0.0077
839.00	0.0096
850.00	0.0107
861.00	0.0117
872.00	0.0119
883.00	0.0136
894.00	0.0145
905.00	0.0154
916.00	0.0164
927.00	0.0174
938.00	0.0186
949.00	0.0195
960.00	0.0207
971.00	0.0218
982.00	0.0226
993.00	0.0239
1004.00	0.0236
1015.00	0.0250
1026.00	0.0262
1037.00	0.0266
1048.00	0.0275
1059.00	0.0289
1070.00	0.0290
1081.00	0.0293
1092.00	0.0302
1103.00	0.0307
1114.00	0.0307
1125.00	0.0312
1136.00	0.0319
1147.00	0.0324
1158.00	0.0328
1169.00	0.0335
1180.00	0.0339
1191.00	0.0344
1202.00	0.0347
1213.00	0.0349
1224.00	0.0361
1235.00	0.0366
1246.00	0.0364
1257.00	0.0364
1268.00	0.0366
1279.00	0.0365
1290.00	0.0363
1301.00	0.0367
1312.00	0.0365
1323.00	0.0364
1334.00	0.0365
1345.00	0.0370
1356.00	0.0370
1367.00	0.0372
1378.00	0.0381
1389.00	0.0380
1400.00	0.0381
1411.00	0.0373
1422.00	0.0379
1433.00	0.0366
1444.00	0.0372
1455.00	0.0373
1466.00	0.0372
1477.00	0.0360
1488.00	0.0369
1499.00	0.0370
1510.00	0.0374
1521.00	0.0371
1532.00	0.0369
1543.00	0.0368
1554.00	0.0365
1565.00	0.0369
1576.00	0.0366
1587.00	0.0363
1598.00	0.0370
1609.00	0.0372
1620.00	0.0370
1631.00	0.0374
1642.00	0.0360
1653.00	0.0322
1664.00	0.0307
1675.00	0.0300
1686.00	0.0301
1697.00	0.0292
1708.00	0.0290
1719.00	0.0298
1730.00	0.0303
1741.00	0.0299
1752.00	0.0298
1763.00	0.0296
1774.00	0.0301
1785.00	0.0300
1796.00	0.0299
1807.00	0.0300
1818.00	0.0283
1829.00	0.0292
1840.00	0.0299
1851.00	0.0276
1862.00	0.0285
1873.00	0.0293
1884.00	0.0290
1895.00	0.0281
1906.00	0.0291
1917.00	0.0298
1928.00	0.0288
1939.00	0.0286
1950.00	0.0285
1961.00	0.0285
1972.00	0.0283
1983.00	0.0280
1994.00	0.0285
2005.00	0.0282
2016.00	0.0279
2027.00	0.0278
2038.00	0.0281
2049.00	0.0272
2060.00	0.0278
2071.00	0.0277
2082.00	0.0274
2093.00	0.0272
2104.00	0.0263
2115.00	0.0268
2126.00	0.0266
2137.00	0.0266
2148.00	0.0273
2159.00	0.0261
2170.00	0.0264
2181.00	0.0268
2192.00	0.0273
2203.00	0.0289
2214.00	0.0278
2225.00	0.0265
2236.00	0.0275
2247.00	0.0281
2258.00	0.0283
2269.00	0.0269
2280.00	0.0262
2291.00	0.0255
2302.00	0.0252
2313.00	0.0250
2324.00	0.0255
2335.00	0.0248
2346.00	0.0252
2357.00	0.0247
2368.00	0.0239
2379.00	0.0252
2390.00	0.0244
2401.00	0.0246
2412.00	0.0244
2423.00	0.0236
2434.00	0.0238
2445.00	0.0246
2456.00	0.0243
2467.00	0.0237
2478.00	0.0238
2489.00	0.0236
2500.00	0.0235
2511.00	0.0250
2522.00	0.0255
2533.00	0.0254
2544.00	0.0260
2555.00	0.0233
2566.00	0.0273
2577.00	0.0250
2588.00	0.0254
2599.00	0.0249
2610.00	0.0262
2621.00	0.0255
2632.00	0.0263
2643.00	0.0266
2654.00	0.0252
2665.00	0.0279
2676.00	0.0438
2687.00	0.0635
2698.00	0.1098
2709.00	0.1488
2720.00	0.1549
2731.00	0.1405
2742.00	0.1263
2753.00	0.1150
2764.00	0.0963
2775.00	0.0830
2786.00	0.0696
2797.00	0.0611
2808.00	0.0515
2819.00	0.0427
2830.00	0.0394
2841.00	0.0345
2852.00	0.0311
2863.00	0.0290
2874.00	0.0274
2885.00	0.0260
2896.00	0.0245
2907.00	0.0240
2918.00	0.0232
2929.00	0.0221
2940.00	0.0213
2951.00	0.0214
2962.00	0.0210
2973.00	0.0209
2984.00	0.0209
2995.00	0.0209
3006.00	0.0228
3017.00	0.0225
3028.00	0.0222
3039.00	0.0222
3050.00	0.0225
3061.00	0.0229
3072.00	0.0223
3083.00	0.0216
3094.00	0.0220
3105.00	0.0212
3116.00	0.0218
3127.00	0.0209
3138.00	0.0208
3149.00	0.0211
3160.00	0.0203
3171.00	0.0209
3182.00	0.0221
3193.00	0.0210
3204.00	0.0203
3215.00	0.0211
3226.00	0.0222
3237.00	0.0215
3248.00	0.0181
3259.00	0.0218
3270.00	0.0181
3281.00	0.0164
3292.00	0.0217
3300.00	0.0262

File: THF_UV_VIS_2mM.txt
"RawData - P3h-Doped F4tcnq_THF-2mmol"
"Wavelength nm.","Abs."
300.00,
311.00,
322.00,
333.00,
344.00,
355.00,
366.00,
377.00,
388.00,
399.00,
410.00,
421.00,
432.00,
443.00,
454.00,
465.00,
476.00,
487.00,
498.00,
509.00,
520.00,
531.00,
542.00,
553.00,
564.00,
575.00,
586.00,
597.00,
608.00,
619.00,
630.00,
641.00,
652.00,
663.00,
674.00,
685.00,
696.00,
707.00,
718.00,
729.00,
740.00,
751.00,
762.00,
773.00,
784.00,
795.00,
806.00,
817.00,
828.00,
839.00,
850.00,
861.00,
872.00,
883.00,
894.00,
905.00,
916.00,
927.00,
938.00,
949.00,
960.00,
971.00,
982.00,
993.00,
1004.00,0.1254
1015.00,
1026.00,0.1054
1037.00,
1048.00,0.0893
1059.00,
1070.00,0.0773
1081.00,
1092.00,0.0696
1103.00,
1114.00,0.0649
1125.00,
1136.00,0.0623
1147.00,
1158.00,0.0617
1169.00,
1180.00,0.0618
1191.00,
1202.00,0.0630
1213.00,
1224.00,0.0645
1235.00,
1246.00,0.0673
1257.00,
1268.00,0.0703
1279.00,
1290.00,0.0741
1301.00,
1312.00,0.0784
1323.00,
1334.00,0.0846
1345.00,
1356.00,0.0913
1367.00,
1378.00,0.0986
1389.00,
1400.00,0.1064
1411.00,
1422.00,0.1153
1433.00,
1444.00,0.1251
1455.00,
1466.00,0.1366
1477.00,
1488.00,0.1488
1499.00,
1510.00,0.1624
1521.00,
1532.00,0.1767
1543.00,
1554.00,0.1916
1565.00,
1576.00,0.2076
1587.00,
1598.00,0.2234
1609.00,
1620.00,0.2397
1631.00,
1642.00,0.2561
1653.00,
1664.00,0.2753
1675.00,
1686.00,0.2895
1697.00,
1708.00,0.3032
1719.00,
1730.00,0.3161
1741.00,
1752.00,0.3287
1763.00,
1774.00,0.3407
1785.00,
1796.00,0.3515
1807.00,
1818.00,0.3624
1829.00,
1840.00,0.3729
1851.00,
1862.00,0.3810
1873.00,
1884.00,0.3884
1895.00,
1906.00,0.3952
1917.00,
1928.00,0.3986
1939.00,
1950.00,0.4027
1961.00,
1972.00,0.4055
1983.00,
1994.00,0.4077
2005.00,
2016.00,0.4101
2027.00,
2038.00,0.4118
2049.00,
2060.00,0.4150
2071.00,
2082.00,0.4166
2093.00,
2104.00,0.4171
2115.00,
2126.00,0.4164
2137.00,
2148.00,0.4151
2159.00,
2170.00,0.4141
2181.00,
2192.00,0.4137
2203.00,
2214.00,0.4143
2225.00,
2236.00,0.4116
2247.00,
2258.00,0.4085
2269.00,
2280.00,0.4062
2291.00,
2302.00,0.4033
2313.00,
2324.00,0.3999
2335.00,
2346.00,0.3966
2357.00,
2368.00,0.3933
2379.00,
2390.00,0.3905
2401.00,
2412.00,0.3871
2423.00,
2434.00,0.3845
2445.00,
2456.00,0.3822
2467.00,
2478.00,0.3796
2489.00,
2500.00,0.3775
2511.00,
2522.00,0.3777
2533.00,
2544.00,0.3742
2555.00,
2566.00,0.3751
2577.00,
2588.00,0.3712
2599.00,
2610.00,0.3718
2621.00,
2632.00,0.3652
2643.00,
2654.00,0.3588
2665.00,
2676.00,0.3757
2687.00,
2698.00,0.4623
2709.00,
2720.00,0.5216
2731.00,
2742.00,0.4847
2753.00,
2764.00,0.4438
2775.00,
2786.00,0.4087
2797.00,
2808.00,0.3809
2819.00,
2830.00,0.3593
2841.00,
2852.00,0.3469
2863.00,
2874.00,0.3387
2885.00,
2896.00,0.3318
2907.00,
2918.00,0.3272
2929.00,
2940.00,0.3216
2951.00,
2962.00,0.3178
2973.00,
2984.00,0.3144
2995.00,
3006.00,0.3122
3017.00,
3028.00,0.3094
3039.00,
3050.00,0.3062
3061.00,
3072.00,0.3027
3083.00,
3094.00,0.2990
3105.00,
3116.00,0.2965
3127.00,
3138.00,0.2936
3149.00,
3160.00,0.2899
3171.00,
3182.00,0.2862
3193.00,
3204.00,0.2863
3215.00,
3226.00,0.2840
3237.00,
3248.00,0.2776
3259.00,
3270.00,0.2815
3281.00,
3292.00,0.2750
3300.00,0.2769

File: THF_UV_VIS_10mM.txt
"RawData - P3h-Doped F4tcnq_THF-10mmol"
"Wavelength nm.","Abs."
300.00,
311.00,
322.00,
333.00,
344.00,
355.00,
366.00,
377.00,
388.00,
399.00,
410.00,
421.00,
432.00,
443.00,
454.00,
465.00,
476.00,
487.00,
498.00,
509.00,
520.00,
531.00,
542.00,
553.00,
564.00,
575.00,
586.00,
597.00,
608.00,
619.00,
630.00,
641.00,
652.00,
663.00,
674.00,
685.00,
696.00,
707.00,
718.00,
729.00,
740.00,
751.00,
762.00,
773.00,
784.00,
795.00,
806.00,
817.00,
828.00,
839.00,
850.00,
861.00,
872.00,
883.00,
894.00,
905.00,
916.00,
927.00,
938.00,
949.00,
960.00,
971.00,
982.00,
993.00,
1004.00,0.1463
1015.00,
1026.00,0.1233
1037.00,
1048.00,0.1053
1059.00,
1070.00,0.0924
1081.00,
1092.00,0.0844
1103.00,
1114.00,0.0798
1125.00,
1136.00,0.0774
1147.00,
1158.00,0.0771
1169.00,
1180.00,0.0777
1191.00,
1202.00,0.0800
1213.00,
1224.00,0.0829
1235.00,
1246.00,0.0865
1257.00,
1268.00,0.0913
1279.00,
1290.00,0.0968
1301.00,
1312.00,0.1029
1323.00,
1334.00,0.1117
1345.00,
1356.00,0.1202
1367.00,
1378.00,0.1305
1389.00,
1400.00,0.1416
1411.00,
1422.00,0.1541
1433.00,
1444.00,0.1682
1455.00,
1466.00,0.1835
1477.00,
1488.00,0.1995
1499.00,
1510.00,0.2163
1521.00,
1532.00,0.2338
1543.00,
1554.00,0.2518
1565.00,
1576.00,0.2702
1587.00,
1598.00,0.2877
1609.00,
1620.00,0.3054
1631.00,
1642.00,0.3221
1653.00,
1664.00,0.3428
1675.00,
1686.00,0.3562
1697.00,
1708.00,0.3688
1719.00,
1730.00,0.3806
1741.00,
1752.00,0.3915
1763.00,
1774.00,0.4019
1785.00,
1796.00,0.4111
1807.00,
1818.00,0.4205
1829.00,
1840.00,0.4284
1851.00,
1862.00,0.4345
1873.00,
1884.00,0.4416
1895.00,
1906.00,0.4463
1917.00,
1928.00,0.4475
1939.00,
1950.00,0.4501
1961.00,
1972.00,0.4513
1983.00,
1994.00,0.4524
2005.00,
2016.00,0.4534
2027.00,
2038.00,0.4540
2049.00,
2060.00,0.4559
2071.00,
2082.00,0.4566
2093.00,
2104.00,0.4560
2115.00,
2126.00,0.4544
2137.00,
2148.00,0.4522
2159.00,
2170.00,0.4502
2181.00,
2192.00,0.4479
2203.00,
2214.00,0.4464
2225.00,
2236.00,0.4439
2247.00,
2258.00,0.4412
2269.00,
2280.00,0.4395
2291.00,
2302.00,0.4361
2313.00,
2324.00,0.4324
2335.00,
2346.00,0.4290
2357.00,
2368.00,0.4261
2379.00,
2390.00,0.4220
2401.00,
2412.00,0.4188
2423.00,
2434.00,0.4159
2445.00,
2456.00,0.4129
2467.00,
2478.00,0.4102
2489.00,
2500.00,0.4075
2511.00,
2522.00,0.4064
2533.00,
2544.00,0.4028
2555.00,
2566.00,0.4003
2577.00,
2588.00,0.3978
2599.00,
2610.00,0.3975
2621.00,
2632.00,0.3876
2643.00,
2654.00,0.3825
2665.00,
2676.00,0.3906
2687.00,
2698.00,0.4213
2709.00,
2720.00,0.4314
2731.00,
2742.00,0.4064
2753.00,
2764.00,0.3921
2775.00,
2786.00,0.3774
2797.00,
2808.00,0.3674
2819.00,
2830.00,0.3625
2841.00,
2852.00,0.3601
2863.00,
2874.00,0.3561
2885.00,
2896.00,0.3524
2907.00,
2918.00,0.3491
2929.00,
2940.00,0.3452
2951.00,
2962.00,0.3415
2973.00,
2984.00,0.3383
2995.00,
3006.00,0.3398
3017.00,
3028.00,0.3374
3039.00,
3050.00,0.3349
3061.00,
3072.00,0.3305
3083.00,
3094.00,0.3279
3105.00,
3116.00,0.3252
3127.00,
3138.00,0.3223
3149.00,
3160.00,0.3192
3171.00,
3182.00,0.3160
3193.00,
3204.00,0.3122
3215.00,
3226.00,0.3123
3237.00,
3248.00,0.3080
3259.00,
3270.00,0.3067
3281.00,
3292.00,0.3072
3300.00,0.3055

File: THF_UV_VIS_20mM.txt
"20-30mM-1_THF20mM - RawData"
"Wavelength nm."	"Abs."
300.00	0.2890
311.00	0.2976
322.00	0.3262
333.00	0.3600
344.00	0.4011
355.00	0.4400
366.00	0.4845
377.00	0.5495
388.00	0.6455
399.00	0.7289
410.00	0.8115
421.00	0.8334
432.00	0.7931
443.00	0.7951
454.00	0.8332
465.00	0.8853
476.00	0.9318
487.00	0.9639
498.00	0.9778
509.00	0.9750
520.00	0.9481
531.00	0.9103
542.00	0.8685
553.00	0.8244
564.00	0.7785
575.00	0.7294
586.00	0.6755
597.00	0.6196
608.00	0.5679
619.00	0.5295
630.00	0.5068
641.00	0.4964
652.00	0.4964
663.00	0.5020
674.00	0.5135
685.00	0.5250
696.00	0.5305
707.00	0.5342
718.00	0.5372
729.00	0.5444
740.00	0.5610
751.00	0.5796
762.00	0.5901
773.00	0.5842
784.00	0.5560
795.00	0.5288
806.00	0.4953
817.00	0.4801
828.00	0.4813
839.00	0.4959
850.00	0.5179
861.00	0.5183
872.00	0.5070
883.00	0.4719
894.00	0.4224
905.00	0.3798
916.00	0.3432
927.00	0.3121
938.00	0.2850
949.00	0.2608
960.00	0.2392
971.00	0.2190
982.00	0.2011
993.00	0.1848
1004.00	0.1691
1015.00	0.1560
1026.00	0.1443
1037.00	0.1340
1048.00	0.1254
1059.00	0.1176
1070.00	0.1118
1081.00	0.1067
1092.00	0.1030
1103.00	0.1000
1114.00	0.0979
1125.00	0.0963
1136.00	0.0955
1147.00	0.0949
1158.00	0.0952
1169.00	0.0956
1180.00	0.0964
1191.00	0.0980
1202.00	0.0993
1213.00	0.1011
1224.00	0.1031
1235.00	0.1060
1246.00	0.1081
1257.00	0.1106
1268.00	0.1139
1279.00	0.1172
1290.00	0.1204
1301.00	0.1245
1312.00	0.1287
1323.00	0.1328
1334.00	0.1377
1345.00	0.1432
1356.00	0.1490
1367.00	0.1554
1378.00	0.1627
1389.00	0.1696
1400.00	0.1765
1411.00	0.1844
1422.00	0.1918
1433.00	0.1988
1444.00	0.2075
1455.00	0.2162
1466.00	0.2246
1477.00	0.2333
1488.00	0.2420
1499.00	0.2515
1510.00	0.2616
1521.00	0.2706
1532.00	0.2804
1543.00	0.2899
1554.00	0.3005
1565.00	0.3095
1576.00	0.3189
1587.00	0.3290
1598.00	0.3386
1609.00	0.3476
1620.00	0.3571
1631.00	0.3656
1642.00	0.3726
1653.00	0.3763
1664.00	0.3815
1675.00	0.3892
1686.00	0.3969
1697.00	0.4031
1708.00	0.4097
1719.00	0.4166
1730.00	0.4229
1741.00	0.4289
1752.00	0.4350
1763.00	0.4394
1774.00	0.4455
1785.00	0.4511
1796.00	0.4556
1807.00	0.4607
1818.00	0.4644
1829.00	0.4683
1840.00	0.4725
1851.00	0.4744
1862.00	0.4791
1873.00	0.4821
1884.00	0.4835
1895.00	0.4852
1906.00	0.4915
1917.00	0.4909
1928.00	0.4933
1939.00	0.4950
1950.00	0.4964
1961.00	0.4980
1972.00	0.4992
1983.00	0.5005
1994.00	0.5018
2005.00	0.5025
2016.00	0.5042
2027.00	0.5039
2038.00	0.5046
2049.00	0.5045
2060.00	0.5066
2071.00	0.5069
2082.00	0.5070
2093.00	0.5076
2104.00	0.5060
2115.00	0.5065
2126.00	0.5065
2137.00	0.5057
2148.00	0.5054
2159.00	0.5041
2170.00	0.5041
2181.00	0.5039
2192.00	0.5043
2203.00	0.5048
2214.00	0.5035
2225.00	0.5011
2236.00	0.5010
2247.00	0.4996
2258.00	0.4983
2269.00	0.4969
2280.00	0.4956
2291.00	0.4932
2302.00	0.4924
2313.00	0.4912
2324.00	0.4892
2335.00	0.4886
2346.00	0.4863
2357.00	0.4847
2368.00	0.4830
2379.00	0.4819
2390.00	0.4808
2401.00	0.4792
2412.00	0.4779
2423.00	0.4760
2434.00	0.4737
2445.00	0.4751
2456.00	0.4724
2467.00	0.4703
2478.00	0.4698
2489.00	0.4688
2500.00	0.4668
2511.00	0.4654
2522.00	0.4646
2533.00	0.4618
2544.00	0.4608
2555.00	0.4591
2566.00	0.4604
2577.00	0.4633
2588.00	0.4543
2599.00	0.4578
2610.00	0.4519
2621.00	0.4562
2632.00	0.4537
2643.00	0.4501
2654.00	0.4520
2665.00	0.4512
2676.00	0.4610
2687.00	0.4888
2698.00	0.5715
2709.00	0.6408
2720.00	0.6938
2731.00	0.6778
2742.00	0.6313
2753.00	0.5985
2764.00	0.5616
2775.00	0.5239
2786.00	0.5003
2797.00	0.4807
2808.00	0.4637
2819.00	0.4515
2830.00	0.4422
2841.00	0.4355
2852.00	0.4287
2863.00	0.4241
2874.00	0.4208
2885.00	0.4165
2896.00	0.4128
2907.00	0.4113
2918.00	0.4070
2929.00	0.4057
2940.00	0.4032
2951.00	0.4004
2962.00	0.3997
2973.00	0.3990
2984.00	0.3950
2995.00	0.3943
3006.00	0.3990
3017.00	0.3992
3028.00	0.3977
3039.00	0.3961
3050.00	0.3937
3061.00	0.3933
3072.00	0.3928
3083.00	0.3899
3094.00	0.3880
3105.00	0.3863
3116.00	0.3851
3127.00	0.3829
3138.00	0.3798
3149.00	0.3788
3160.00	0.3769
3171.00	0.3761
3182.00	0.3779
3193.00	0.3757
3204.00	0.3724
3215.00	0.3688
3226.00	0.3714
3237.00	0.3666
3248.00	0.3634
3259.00	0.3659
3270.00	0.3565
3281.00	0.3540
3292.00	0.3589
3300.00	0.3633