Folder: Thin-film-diagnosis-data

Note: README.md
# Thin Film Diagnosis using Hyperspectral imaging

This repository contains all the source files that are analysed using

File: CB_UV_VIS_0mM.txt
"20-30mM-1_CB0mM - RawData"
"Wavelength nm."	"Abs."
300.00	0.0617
311.00	0.0595
322.00	0.0582
333.00	0.0581
344.00	0.0646
355.00	0.0707
366.00	0.0777
377.00	0.0842
388.00	0.0933
399.00	0.1046
410.00	0.1177
421.00	0.1338
432.00	0.1522
443.00	0.1745
454.00	0.2016
465.00	0.2314
476.00	0.2601
487.00	0.2887
498.00	0.3120
509.00	0.3314
520.00	0.3409
531.00	0.3409
542.00	0.3361
553.00	0.3304
564.00	0.3089
575.00	0.2748
586.00	0.2456
597.00	0.2280
608.00	0.2077
619.00	0.1700
630.00	0.1269
641.00	0.0926
652.00	0.0735
663.00	0.0619
674.00	0.0570
685.00	0.0518
696.00	0.0487
707.00	0.0467
718.00	0.0462
729.00	0.0420
740.00	0.0413
751.00	0.0403
762.00	0.0397
773.00	0.0386
784.00	0.0370
795.00	0.0329
806.00	0.0235
817.00	0.0194
828.00	0.0196
839.00	0.0189
850.00	0.0193
861.00	0.0182
872.00	0.0174
883.00	0.0168
894.00	0.0164
905.00	0.0163
916.00	0.0155
927.00	0.0154
938.00	0.0152
949.00	0.0148
960.00	0.0145
971.00	0.0145
982.00	0.0143
993.00	0.0141
1004.00	0.0137
1015.00	0.0131
1026.00	0.0130
1037.00	0.0128
1048.00	0.0120
1059.00	0.0128
1070.00	0.0117
1081.00	0.0120
1092.00	0.0120
1103.00	0.0120
1114.00	0.0115
1125.00	0.0113
1136.00	0.0113
1147.00	0.0110
1158.00	0.0110
1169.00	0.0110
1180.00	0.0110
1191.00	0.0108
1202.00	0.0108
1213.00	0.0111
1224.00	0.0110
1235.00	0.0109
1246.00	0.0108
1257.00	0.0099
1268.00	0.0102
1279.00	0.0104
1290.00	0.0098
1301.00	0.0097
1312.00	0.0092
1323.00	0.0088
1334.00	0.0090
1345.00	0.0081
1356.00	0.0087
1367.00	0.0092
1378.00	0.0098
1389.00	0.0086
1400.00	0.0094
1411.00	0.0089
1422.00	0.0091
1433.00	0.0091
1444.00	0.0086
1455.00	0.0082
1466.00	0.0086
1477.00	0.0085
1488.00	0.0080
1499.00	0.0080
1510.00	0.0085
1521.00	0.0082
1532.00	0.0073
1543.00	0.0078
1554.00	0.0081
1565.00	0.0082
1576.00	0.0080
1587.00	0.0083
1598.00	0.0083
1609.00	0.0082
1620.00	0.0086
1631.00	0.0089
1642.00	0.0078
1653.00	0.0043
1664.00	0.0030
1675.00	0.0026
1686.00	0.0021
1697.00	0.0021
1708.00	0.0021
1719.00	0.0028
1730.00	0.0031
1741.00	0.0029
1752.00	0.0027
1763.00	0.0025
1774.00	0.0026
1785.00	0.0033
1796.00	0.0030
1807.00	0.0033
1818.00	0.0026
1829.00	0.0038
1840.00	0.0031
1851.00	0.0023
1862.00	0.0031
1873.00	0.0033
1884.00	0.0027
1895.00	0.0024
1906.00	0.0032
1917.00	0.0033
1928.00	0.0035
1939.00	0.0026
1950.00	0.0030
1961.00	0.0035
1972.00	0.0029
1983.00	0.0026
1994.00	0.0032
2005.00	0.0034
2016.00	0.0028
2027.00	0.0026
2038.00	0.0031
2049.00	0.0027
2060.00	0.0032
2071.00	0.0036
2082.00	0.0022
2093.00	0.0022
2104.00	0.0025
2115.00	0.0026
2126.00	0.0025
2137.00	0.0031
2148.00	0.0027
2159.00	0.0022
2170.00	0.0024
2181.00	0.0029
2192.00	0.0025
2203.00	0.0012
2214.00	0.0004
2225.00	-0.0002
2236.00	0.0014
2247.00	0.0021
2258.00	0.0025
2269.00	0.0026
2280.00	0.0019
2291.00	0.0021
2302.00	0.0023
2313.00	0.0018
2324.00	0.0033
2335.00	0.0017
2346.00	0.0022
2357.00	0.0028
2368.00	0.0024
2379.00	0.0024
2390.00	0.0032
2401.00	0.0036
2412.00	0.0029
2423.00	0.0018
2434.00	0.0018
2445.00	0.0024
2456.00	0.0016
2467.00	0.0012
2478.00	0.0018
2489.00	0.0020
2500.00	0.0014
2511.00	0.0019
2522.00	0.0016
2533.00	0.0017
2544.00	0.0014
2555.00	-0.0008
2566.00	0.0008
2577.00	-0.0001
2588.00	-0.0014
2599.00	-0.0026
2610.00	-0.0009
2621.00	-0.0005
2632.00	-0.0006
2643.00	-0.0009
2654.00	-0.0043
2665.00	-0.0076
2676.00	0.0007
2687.00	-0.0144
2698.00	-0.0374
2709.00	-0.0524
2720.00	-0.0826
2731.00	-0.0956
2742.00	-0.0880
2753.00	-0.0825
2764.00	-0.0745
2775.00	-0.0602
2786.00	-0.0542
2797.00	-0.0432
2808.00	-0.0347
2819.00	-0.0279
2830.00	-0.0201
2841.00	-0.0154
2852.00	-0.0113
2863.00	-0.0081
2874.00	-0.0061
2885.00	-0.0047
2896.00	-0.0039
2907.00	-0.0027
2918.00	-0.0018
2929.00	-0.0017
2940.00	-0.0010
2951.00	-0.0005
2962.00	-0.0001
2973.00	0.0012
2984.00	0.0004
2995.00	0.0010
3006.00	0.0109
3017.00	0.0132
3028.00	0.0132
3039.00	0.0135
3050.00	0.0138
3061.00	0.0143
3072.00	0.0150
3083.00	0.0153
3094.00	0.0152
3105.00	0.0152
3116.00	0.0144
3127.00	0.0127
3138.00	0.0128
3149.00	0.0135
3160.00	0.0131
3171.00	0.0131
3182.00	0.0143
3193.00	0.0136
3204.00	0.0135
3215.00	0.0134
3226.00	0.0158
3237.00	0.0157
3248.00	0.0108
3259.00	0.0114
3270.00	0.0102
3281.00	0.0093
3292.00	0.0179
3300.00	0.0296

File: CB_UV_VIS_10mM.txt
"RawData - P3h-Doped F4tcnq_CB-10mmol"
"Wavelength nm.","Abs."
300.00,
311.00,
322.00,
333.00,
344.00,
355.00,
366.00,
377.00,
388.00,
399.00,
410.00,
421.00,
432.00,
443.00,
454.00,
465.00,
476.00,
487.00,
498.00,
509.00,
520.00,
531.00,
542.00,
553.00,
564.00,
575.00,
586.00,
597.00,
608.00,
619.00,
630.00,
641.00,
652.00,
663.00,
674.00,
685.00,
696.00,
707.00,
718.00,
729.00,
740.00,
751.00,
762.00,
773.00,
784.00,
795.00,
806.00,
817.00,
828.00,
839.00,
850.00,
861.00,
872.00,
883.00,
894.00,
905.00,
916.00,
927.00,
938.00,
949.00,
960.00,
971.00,
982.00,
993.00,
1004.00,0.0603
1015.00,
1026.00,0.0514
1037.00,
1048.00,0.0437
1059.00,
1070.00,0.0377
1081.00,
1092.00,0.0337
1103.00,
1114.00,0.0309
1125.00,
1136.00,0.0289
1147.00,
1158.00,0.0281
1169.00,
1180.00,0.0274
1191.00,
1202.00,0.0278
1213.00,
1224.00,0.0282
1235.00,
1246.00,0.0291
1257.00,
1268.00,0.0302
1279.00,
1290.00,0.0316
1301.00,
1312.00,0.0328
1323.00,
1334.00,0.0359
1345.00,
1356.00,0.0379
1367.00,
1378.00,0.0409
1389.00,
1400.00,0.0437
1411.00,
1422.00,0.0471
1433.00,
1444.00,0.0507
1455.00,
1466.00,0.0549
1477.00,
1488.00,0.0592
1499.00,
1510.00,0.0635
1521.00,
1532.00,0.0683
1543.00,
1554.00,0.0727
1565.00,
1576.00,0.0776
1587.00,
1598.00,0.0826
1609.00,
1620.00,0.0875
1631.00,
1642.00,0.0918
1653.00,
1664.00,0.0992
1675.00,
1686.00,0.1029
1697.00,
1708.00,0.1067
1719.00,
1730.00,0.1104
1741.00,
1752.00,0.1139
1763.00,
1774.00,0.1172
1785.00,
1796.00,0.1203
1807.00,
1818.00,0.1238
1829.00,
1840.00,0.1268
1851.00,
1862.00,0.1290
1873.00,
1884.00,0.1306
1895.00,
1906.00,0.1335
1917.00,
1928.00,0.1336
1939.00,
1950.00,0.1347
1961.00,
1972.00,0.1351
1983.00,
1994.00,0.1357
2005.00,
2016.00,0.1362
2027.00,
2038.00,0.1366
2049.00,
2060.00,0.1376
2071.00,
2082.00,0.1379
2093.00,
2104.00,0.1377
2115.00,
2126.00,0.1373
2137.00,
2148.00,0.1367
2159.00,
2170.00,0.1359
2181.00,
2192.00,0.1359
2203.00,
2214.00,0.1362
2225.00,
2236.00,0.1348
2247.00,
2258.00,0.1331
2269.00,
2280.00,0.1326
2291.00,
2302.00,0.1317
2313.00,
2324.00,0.1301
2335.00,
2346.00,0.1287
2357.00,
2368.00,0.1276
2379.00,
2390.00,0.1262
2401.00,
2412.00,0.1250
2423.00,
2434.00,0.1235
2445.00,
2456.00,0.1230
2467.00,
2478.00,0.1210
2489.00,
2500.00,0.1204
2511.00,
2522.00,0.1205
2533.00,
2544.00,0.1188
2555.00,
2566.00,0.1184
2577.00,
2588.00,0.1162
2599.00,
2610.00,0.1156
2621.00,
2632.00,0.1123
2643.00,
2654.00,0.1101
2665.00,
2676.00,0.1221
2687.00,
2698.00,0.1590
2709.00,
2720.00,0.1691
2731.00,
2742.00,0.1477
2753.00,
2764.00,0.1321
2775.00,
2786.00,0.1198
2797.00,
2808.00,0.1111
2819.00,
2830.00,0.1064
2841.00,
2852.00,0.1033
2863.00,
2874.00,0.1010
2885.00,
2896.00,0.0991
2907.00,
2918.00,0.0974
2929.00,
2940.00,0.0956
2951.00,
2962.00,0.0939
2973.00,
2984.00,0.0930
2995.00,
3006.00,0.0913
3017.00,
3028.00,0.0901
3039.00,
3050.00,0.0889
3061.00,
3072.00,0.0877
3083.00,
3094.00,0.0862
3105.00,
3116.00,0.0852
3127.00,
3138.00,0.0836
3149.00,
3160.00,0.0826
3171.00,
3182.00,0.0810
3193.00,
3204.00,0.0789
3215.00,
3226.00,0.0788
3237.00,
3248.00,0.0797
3259.00,
3270.00,0.0777
3281.00,
3292.00,0.0759
3300.00,0.0775

File: CB_UV_VIS_20mM.txt
"20-30mM-CB20mM - RawData"
"Wavelength nm."	"Abs."
300.00	0.1379
311.00	0.1555
322.00	0.1785
333.00	0.1975
344.00	0.2187
355.00	0.2316
366.00	0.2412
377.00	0.2509
388.00	0.2646
399.00	0.2776
410.00	0.2934
421.00	0.3007
432.00	0.2970
443.00	0.2915
454.00	0.2881
465.00	0.2936
476.00	0.2985
487.00	0.3025
498.00	0.3021
509.00	0.3001
520.00	0.2906
531.00	0.2795
542.00	0.2663
553.00	0.2557
564.00	0.2453
575.00	0.2349
586.00	0.2210
597.00	0.2070
608.00	0.1940
619.00	0.1834
630.00	0.1769
641.00	0.1715
652.00	0.1705
663.00	0.1706
674.00	0.1730
685.00	0.1747
696.00	0.1760
707.00	0.1770
718.00	0.1782
729.00	0.1787
740.00	0.1821
751.00	0.1851
762.00	0.1879
773.00	0.1880
784.00	0.1843
795.00	0.1794
806.00	0.1708
817.00	0.1659
828.00	0.1649
839.00	0.1658
850.00	0.1694
861.00	0.1703
872.00	0.1692
883.00	0.1646
894.00	0.1553
905.00	0.1456
916.00	0.1368
927.00	0.1288
938.00	0.1215
949.00	0.1141
960.00	0.1071
971.00	0.1005
982.00	0.0941
993.00	0.0880
1004.00	0.0820
1015.00	0.0766
1026.00	0.0717
1037.00	0.0670
1048.00	0.0623
1059.00	0.0599
1070.00	0.0563
1081.00	0.0532
1092.00	0.0513
1103.00	0.0497
1114.00	0.0477
1125.00	0.0461
1136.00	0.0452
1147.00	0.0447
1158.00	0.0441
1169.00	0.0429
1180.00	0.0438
1191.00	0.0439
1202.00	0.0437
1213.00	0.0442
1224.00	0.0449
1235.00	0.0451
1246.00	0.0457
1257.00	0.0460
1268.00	0.0469
1279.00	0.0479
1290.00	0.0481
1301.00	0.0496
1312.00	0.0506
1323.00	0.0521
1334.00	0.0528
1345.00	0.0544
1356.00	0.0560
1367.00	0.0576
1378.00	0.0596
1389.00	0.0613
1400.00	0.0636
1411.00	0.0656
1422.00	0.0678
1433.00	0.0700
1444.00	0.0712
1455.00	0.0740
1466.00	0.0767
1477.00	0.0786
1488.00	0.0811
1499.00	0.0837
1510.00	0.0862
1521.00	0.0884
1532.00	0.0913
1543.00	0.0939
1554.00	0.0966
1565.00	0.0991
1576.00	0.1015
1587.00	0.1047
1598.00	0.1072
1609.00	0.1102
1620.00	0.1128
1631.00	0.1151
1642.00	0.1167
1653.00	0.1172
1664.00	0.1184
1675.00	0.1209
1686.00	0.1230
1697.00	0.1247
1708.00	0.1269
1719.00	0.1293
1730.00	0.1311
1741.00	0.1335
1752.00	0.1354
1763.00	0.1369
1774.00	0.1392
1785.00	0.1409
1796.00	0.1429
1807.00	0.1444
1818.00	0.1454
1829.00	0.1481
1840.00	0.1491
1851.00	0.1488
1862.00	0.1521
1873.00	0.1520
1884.00	0.1530
1895.00	0.1543
1906.00	0.1569
1917.00	0.1568
1928.00	0.1581
1939.00	0.1591
1950.00	0.1595
1961.00	0.1612
1972.00	0.1618
1983.00	0.1623
1994.00	0.1629
2005.00	0.1644
2016.00	0.1649
2027.00	0.1642
2038.00	0.1651
2049.00	0.1657
2060.00	0.1669
2071.00	0.1668
2082.00	0.1674
2093.00	0.1672
2104.00	0.1679
2115.00	0.1681
2126.00	0.1680
2137.00	0.1686
2148.00	0.1683
2159.00	0.1677
2170.00	0.1682
2181.00	0.1686
2192.00	0.1682
2203.00	0.1668
2214.00	0.1663
2225.00	0.1663
2236.00	0.1666
2247.00	0.1664
2258.00	0.1667
2269.00	0.1666
2280.00	0.1665
2291.00	0.1670
2302.00	0.1664
2313.00	0.1665
2324.00	0.1662
2335.00	0.1660
2346.00	0.1650
2357.00	0.1655
2368.00	0.1642
2379.00	0.1634
2390.00	0.1643
2401.00	0.1644
2412.00	0.1632
2423.00	0.1627
2434.00	0.1616
2445.00	0.1620
2456.00	0.1614
2467.00	0.1607
2478.00	0.1601
2489.00	0.1586
2500.00	0.1588
2511.00	0.1587
2522.00	0.1583
2533.00	0.1570
2544.00	0.1563
2555.00	0.1552
2566.00	0.1562
2577.00	0.1572
2588.00	0.1524
2599.00	0.1531
2610.00	0.1493
2621.00	0.1518
2632.00	0.1509
2643.00	0.1500
2654.00	0.1489
2665.00	0.1463
2676.00	0.1518
2687.00	0.1442
2698.00	0.1564
2709.00	0.1873
2720.00	0.2099
2731.00	0.1975
2742.00	0.1730
2753.00	0.1477
2764.00	0.1321
2775.00	0.1226
2786.00	0.1206
2797.00	0.1193
2808.00	0.1212
2819.00	0.1232
2830.00	0.1268
2841.00	0.1291
2852.00	0.1310
2863.00	0.1322
2874.00	0.1330
2885.00	0.1334
2896.00	0.1331
2907.00	0.1335
2918.00	0.1334
2929.00	0.1332
2940.00	0.1322
2951.00	0.1325
2962.00	0.1323
2973.00	0.1320
2984.00	0.1319
2995.00	0.1318
3006.00	0.1350
3017.00	0.1349
3028.00	0.1346
3039.00	0.1337
3050.00	0.1328
3061.00	0.1333
3072.00	0.1332
3083.00	0.1317
3094.00	0.1311
3105.00	0.1314
3116.00	0.1307
3127.00	0.1296
3138.00	0.1287
3149.00	0.1278
3160.00	0.1269
3171.00	0.1260
3182.00	0.1268
3193.00	0.1267
3204.00	0.1271
3215.00	0.1254
3226.00	0.1262
3237.00	0.1242
3248.00	0.1197
3259.00	0.1241
3270.00	0.1196
3281.00	0.1177
3292.00	0.1328
3300.00	0.1406

File: CB_UV_VIS_30mM.txt
"20-30mM-CB30mM - RawData"
"Wavelength nm."	"Abs."
300.00	0.1420
311.00	0.1582
322.00	0.1768
333.00	0.1913
344.00	0.2094
355.00	0.2229
366.00	0.2346
377.00	0.2499
388.00	0.2707
399.00	0.2879
410.00	0.3063
421.00	0.3112
432.00	0.2992
443.00	0.2874
454.00	0.2796
465.00	0.2833
476.00	0.2882
487.00	0.2926
498.00	0.2946
509.00	0.2942
520.00	0.2892
531.00	0.2812
542.00	0.2712
553.00	0.2618
564.00	0.2518
575.00	0.2423
586.00	0.2287
597.00	0.2149
608.00	0.2018
619.00	0.1920
630.00	0.1855
641.00	0.1801
652.00	0.1791
663.00	0.1797
674.00	0.1832
685.00	0.1845
696.00	0.1858
707.00	0.1870
718.00	0.1881
729.00	0.1890
740.00	0.1936
751.00	0.1990
762.00	0.2039
773.00	0.2038
784.00	0.1982
795.00	0.1914
806.00	0.1800
817.00	0.1739
828.00	0.1732
839.00	0.1760
850.00	0.1832
861.00	0.1856
872.00	0.1847
883.00	0.1787
894.00	0.1666
905.00	0.1551
916.00	0.1445
927.00	0.1351
938.00	0.1275
949.00	0.1188
960.00	0.1114
971.00	0.1047
982.00	0.0978
993.00	0.0916
1004.00	0.0855
1015.00	0.0798
1026.00	0.0750
1037.00	0.0699
1048.00	0.0651
1059.00	0.0624
1070.00	0.0591
1081.00	0.0561
1092.00	0.0539
1103.00	0.0522
1114.00	0.0502
1125.00	0.0488
1136.00	0.0479
1147.00	0.0470
1158.00	0.0466
1169.00	0.0456
1180.00	0.0462
1191.00	0.0461
1202.00	0.0460
1213.00	0.0465
1224.00	0.0468
1235.00	0.0474
1246.00	0.0482
1257.00	0.0480
1268.00	0.0488
1279.00	0.0493
1290.00	0.0496
1301.00	0.0512
1312.00	0.0523
1323.00	0.0530
1334.00	0.0544
1345.00	0.0557
1356.00	0.0569
1367.00	0.0589
1378.00	0.0605
1389.00	0.0620
1400.00	0.0635
1411.00	0.0663
1422.00	0.0682
1433.00	0.0701
1444.00	0.0710
1455.00	0.0739
1466.00	0.0761
1477.00	0.0788
1488.00	0.0810
1499.00	0.0831
1510.00	0.0861
1521.00	0.0884
1532.00	0.0906
1543.00	0.0927
1554.00	0.0954
1565.00	0.0982
1576.00	0.1006
1587.00	0.1037
1598.00	0.1062
1609.00	0.1092
1620.00	0.1116
1631.00	0.1146
1642.00	0.1154
1653.00	0.1141
1664.00	0.1146
1675.00	0.1169
1686.00	0.1189
1697.00	0.1208
1708.00	0.1227
1719.00	0.1252
1730.00	0.1274
1741.00	0.1296
1752.00	0.1313
1763.00	0.1332
1774.00	0.1352
1785.00	0.1375
1796.00	0.1388
1807.00	0.1409
1818.00	0.1424
1829.00	0.1442
1840.00	0.1463
1851.00	0.1465
1862.00	0.1490
1873.00	0.1496
1884.00	0.1509
1895.00	0.1519
1906.00	0.1548
1917.00	0.1550
1928.00	0.1563
1939.00	0.1559
1950.00	0.1572
1961.00	0.1587
1972.00	0.1593
1983.00	0.1601
1994.00	0.1608
2005.00	0.1615
2016.00	0.1623
2027.00	0.1625
2038.00	0.1634
2049.00	0.1636
2060.00	0.1648
2071.00	0.1655
2082.00	0.1656
2093.00	0.1657
2104.00	0.1667
2115.00	0.1664
2126.00	0.1673
2137.00	0.1676
2148.00	0.1671
2159.00	0.1669
2170.00	0.1674
2181.00	0.1673
2192.00	0.1670
2203.00	0.1661
2214.00	0.1653
2225.00	0.1645
2236.00	0.1655
2247.00	0.1662
2258.00	0.1662
2269.00	0.1660
2280.00	0.1657
2291.00	0.1656
2302.00	0.1659
2313.00	0.1655
2324.00	0.1658
2335.00	0.1647
2346.00	0.1647
2357.00	0.1643
2368.00	0.1640
2379.00	0.1637
2390.00	0.1632
2401.00	0.1632
2412.00	0.1616
2423.00	0.1613
2434.00	0.1622
2445.00	0.1616
2456.00	0.1613
2467.00	0.1597
2478.00	0.1599
2489.00	0.1595
2500.00	0.1581
2511.00	0.1579
2522.00	0.1582
2533.00	0.1566
2544.00	0.1561
2555.00	0.1535
2566.00	0.1547
2577.00	0.1545
2588.00	0.1522
2599.00	0.1510
2610.00	0.1511
2621.00	0.1512
2632.00	0.1503
2643.00	0.1490
2654.00	0.1481
2665.00	0.1457
2676.00	0.1473
2687.00	0.1441
2698.00	0.1546
2709.00	0.1896
2720.00	0.2115
2731.00	0.1972
2742.00	0.1719
2753.00	0.1501
2764.00	0.1308
2775.00	0.1213
2786.00	0.1187
2797.00	0.1194
2808.00	0.1195
2819.00	0.1226
2830.00	0.1252
2841.00	0.1288
2852.00	0.1305
2863.00	0.1316
2874.00	0.1326
2885.00	0.1333
2896.00	0.1330
2907.00	0.1337
2918.00	0.1336
2929.00	0.1330
2940.00	0.1327
2951.00	0.1334
2962.00	0.1318
2973.00	0.1325
2984.00	0.1320
2995.00	0.1318
3006.00	0.1333
3017.00	0.1329
3028.00	0.1326
3039.00	0.1325
3050.00	0.1318
3061.00	0.1318
3072.00	0.1318
3083.00	0.1309
3094.00	0.1296
3105.00	0.1293
3116.00	0.1281
3127.00	0.1268
3138.00	0.1266
3149.00	0.1258
3160.00	0.1244
3171.00	0.1239
3182.00	0.1234
3193.00	0.1228
3204.00	0.1223
3215.00	0.1217
3226.00	0.1224
3237.00	0.1210
3248.00	0.1185
3259.00	0.1186
3270.00	0.1189
3281.00	0.1113
3292.00	0.1166
3300.00	0.1155

File: CF_UV_VIS_0mM.txt
"20-30mM-1_CF0mM - RawData"
"Wavelength nm."	"Abs."
300.00	0.0634
311.00	0.0603
322.00	0.0598
333.00	0.0597
344.00	0.0671
355.00	0.0737
366.00	0.0813
377.00	0.0896
388.00	0.1003
399.00	0.1133
410.00	0.1282
421.00	0.1452
432.00	0.1661
443.00	0.1904
454.00	0.2200
465.00	0.2526
476.00	0.2841
487.00	0.3159
498.00	0.3422
509.00	0.3647
520.00	0.3767
531.00	0.3758
542.00	0.3707
553.00	0.3650
564.00	0.3425
575.00	0.3051
586.00	0.2735
597.00	0.2560
608.00	0.2365
619.00	0.1963
630.00	0.1474
641.00	0.1076
652.00	0.0850
663.00	0.0717
674.00	0.0650
685.00	0.0592
696.00	0.0553
707.00	0.0526
718.00	0.0505
729.00	0.0476
740.00	0.0457
751.00	0.0449
762.00	0.0437
773.00	0.0426
784.00	0.0407
795.00	0.0371
806.00	0.0289
817.00	0.0250
828.00	0.0243
839.00	0.0237
850.00	0.0230
861.00	0.0222
872.00	0.0217
883.00	0.0211
894.00	0.0204
905.00	0.0198
916.00	0.0195
927.00	0.0190
938.00	0.0190
949.00	0.0183
960.00	0.0179
971.00	0.0175
982.00	0.0172
993.00	0.0172
1004.00	0.0167
1015.00	0.0160
1026.00	0.0159
1037.00	0.0155
1048.00	0.0157
1059.00	0.0151
1070.00	0.0150
1081.00	0.0143
1092.00	0.0144
1103.00	0.0143
1114.00	0.0139
1125.00	0.0136
1136.00	0.0134
1147.00	0.0134
1158.00	0.0129
1169.00	0.0128
1180.00	0.0126
1191.00	0.0126
1202.00	0.0123
1213.00	0.0129
1224.00	0.0127
1235.00	0.0130
1246.00	0.0126
1257.00	0.0121
1268.00	0.0120
1279.00	0.0117
1290.00	0.0110
1301.00	0.0113
1312.00	0.0108
1323.00	0.0103
1334.00	0.0098
1345.00	0.0103
1356.00	0.0101
1367.00	0.0105
1378.00	0.0112
1389.00	0.0110
1400.00	0.0110
1411.00	0.0104
1422.00	0.0106
1433.00	0.0094
1444.00	0.0095
1455.00	0.0097
1466.00	0.0096
1477.00	0.0095
1488.00	0.0088
1499.00	0.0088
1510.00	0.0095
1521.00	0.0090
1532.00	0.0089
1543.00	0.0088
1554.00	0.0089
1565.00	0.0089
1576.00	0.0085
1587.00	0.0089
1598.00	0.0089
1609.00	0.0091
1620.00	0.0087
1631.00	0.0094
1642.00	0.0083
1653.00	0.0047
1664.00	0.0034
1675.00	0.0029
1686.00	0.0029
1697.00	0.0025
1708.00	0.0025
1719.00	0.0028
1730.00	0.0032
1741.00	0.0029
1752.00	0.0029
1763.00	0.0029
1774.00	0.0031
1785.00	0.0036
1796.00	0.0034
1807.00	0.0035
1818.00	0.0025
1829.00	0.0039
1840.00	0.0033
1851.00	0.0026
1862.00	0.0034
1873.00	0.0031
1884.00	0.0033
1895.00	0.0020
1906.00	0.0035
1917.00	0.0037
1928.00	0.0033
1939.00	0.0030
1950.00	0.0031
1961.00	0.0034
1972.00	0.0030
1983.00	0.0029
1994.00	0.0037
2005.00	0.0035
2016.00	0.0027
2027.00	0.0031
2038.00	0.0037
2049.00	0.0024
2060.00	0.0033
2071.00	0.0030
2082.00	0.0031
2093.00	0.0023
2104.00	0.0024
2115.00	0.0030
2126.00	0.0028
2137.00	0.0032
2148.00	0.0034
2159.00	0.0029
2170.00	0.0028
2181.00	0.0039
2192.00	0.0038
2203.00	0.0047
2214.00	0.0045
2225.00	0.0035
2236.00	0.0043
2247.00	0.0051
2258.00	0.0050
2269.00	0.0044
2280.00	0.0038
2291.00	0.0030
2302.00	0.0031
2313.00	0.0027
2324.00	0.0031
2335.00	0.0031
2346.00	0.0033
2357.00	0.0034
2368.00	0.0024
2379.00	0.0030
2390.00	0.0031
2401.00	0.0029
2412.00	0.0032
2423.00	0.0025
2434.00	0.0030
2445.00	0.0026
2456.00	0.0031
2467.00	0.0021
2478.00	0.0033
2489.00	0.0037
2500.00	0.0032
2511.00	0.0045
2522.00	0.0050
2533.00	0.0042
2544.00	0.0055
2555.00	0.0038
2566.00	0.0051
2577.00	0.0054
2588.00	0.0052
2599.00	0.0032
2610.00	0.0054
2621.00	0.0058
2632.00	0.0068
2643.00	0.0078
2654.00	0.0058
2665.00	0.0070
2676.00	0.0224
2687.00	0.0350
2698.00	0.0795
2709.00	0.1127
2720.00	0.1184
2731.00	0.1107
2742.00	0.0933
2753.00	0.0818
2764.00	0.0660
2775.00	0.0529
2786.00	0.0424
2797.00	0.0345
2808.00	0.0266
2819.00	0.0202
2830.00	0.0171
2841.00	0.0132
2852.00	0.0112
2863.00	0.0100
2874.00	0.0084
2885.00	0.0070
2896.00	0.0063
2907.00	0.0054
2918.00	0.0052
2929.00	0.0041
2940.00	0.0041
2951.00	0.0043
2962.00	0.0031
2973.00	0.0044
2984.00	0.0039
2995.00	0.0034
3006.00	0.0115
3017.00	0.0127
3028.00	0.0125
3039.00	0.0127
3050.00	0.0125
3061.00	0.0134
3072.00	0.0135
3083.00	0.0137
3094.00	0.0132
3105.00	0.0130
3116.00	0.0127
3127.00	0.0119
3138.00	0.0113
3149.00	0.0104
3160.00	0.0111
3171.00	0.0114
3182.00	0.0117
3193.00	0.0116
3204.00	0.0128
3215.00	0.0126
3226.00	0.0127
3237.00	0.0135
3248.00	0.0110
3259.00	0.0119
3270.00	0.0067
3281.00	0.0075
3292.00	0.0197
3300.00	0.0420

File: CF_UV_VIS_10mM.txt
"RawData - P3h-Doped F4tcnq_CF-10mmol"
"Wavelength nm.","Abs."
300.00,
311.00,
322.00,
333.00,
344.00,
355.00,
366.00,
377.00,
388.00,
399.00,
410.00,
421.00,
432.00,
443.00,
454.00,
465.00,
476.00,
487.00,
498.00,
509.00,
520.00,
531.00,
542.00,
553.00,
564.00,
575.00,
586.00,
597.00,
608.00,
619.00,
630.00,
641.00,
652.00,
663.00,
674.00,
685.00,
696.00,
707.00,
718.00,
729.00,
740.00,
751.00,
762.00,
773.00,
784.00,
795.00,
806.00,
817.00,
828.00,
839.00,
850.00,
861.00,
872.00,
883.00,
894.00,
905.00,
916.00,
927.00,
938.00,
949.00,
960.00,
971.00,
982.00,
993.00,
1004.00,0.1085
1015.00,
1026.00,0.0935
1037.00,
1048.00,0.0808
1059.00,
1070.00,0.0704
1081.00,
1092.00,0.0628
1103.00,
1114.00,0.0573
1125.00,
1136.00,0.0533
1147.00,
1158.00,0.0510
1169.00,
1180.00,0.0497
1191.00,
1202.00,0.0493
1213.00,
1224.00,0.0498
1235.00,
1246.00,0.0508
1257.00,
1268.00,0.0522
1279.00,
1290.00,0.0544
1301.00,
1312.00,0.0567
1323.00,
1334.00,0.0611
1345.00,
1356.00,0.0650
1367.00,
1378.00,0.0698
1389.00,
1400.00,0.0750
1411.00,
1422.00,0.0804
1433.00,
1444.00,0.0868
1455.00,
1466.00,0.0939
1477.00,
1488.00,0.1012
1499.00,
1510.00,0.1086
1521.00,
1532.00,0.1166
1543.00,
1554.00,0.1250
1565.00,
1576.00,0.1335
1587.00,
1598.00,0.1418
1609.00,
1620.00,0.1507
1631.00,
1642.00,0.1590
1653.00,
1664.00,0.1688
1675.00,
1686.00,0.1757
1697.00,
1708.00,0.1820
1719.00,
1730.00,0.1882
1741.00,
1752.00,0.1939
1763.00,
1774.00,0.1996
1785.00,
1796.00,0.2051
1807.00,
1818.00,0.2103
1829.00,
1840.00,0.2164
1851.00,
1862.00,0.2202
1873.00,
1884.00,0.2230
1895.00,
1906.00,0.2262
1917.00,
1928.00,0.2281
1939.00,
1950.00,0.2297
1961.00,
1972.00,0.2308
1983.00,
1994.00,0.2317
2005.00,
2016.00,0.2326
2027.00,
2038.00,0.2339
2049.00,
2060.00,0.2357
2071.00,
2082.00,0.2365
2093.00,
2104.00,0.2366
2115.00,
2126.00,0.2361
2137.00,
2148.00,0.2353
2159.00,
2170.00,0.2345
2181.00,
2192.00,0.2347
2203.00,
2214.00,0.2356
2225.00,
2236.00,0.2335
2247.00,
2258.00,0.2316
2269.00,
2280.00,0.2299
2291.00,
2302.00,0.2283
2313.00,
2324.00,0.2260
2335.00,
2346.00,0.2237
2357.00,
2368.00,0.2221
2379.00,
2390.00,0.2205
2401.00,
2412.00,0.2180
2423.00,
2434.00,0.2167
2445.00,
2456.00,0.2149
2467.00,
2478.00,0.2131
2489.00,
2500.00,0.2126
2511.00,
2522.00,0.2123
2533.00,
2544.00,0.2108
2555.00,
2566.00,0.2092
2577.00,
2588.00,0.2086
2599.00,
2610.00,0.2089
2621.00,
2632.00,0.2016
2643.00,
2654.00,0.1995
2665.00,
2676.00,0.2169
2687.00,
2698.00,0.2964
2709.00,
2720.00,0.3467
2731.00,
2742.00,0.3131
2753.00,
2764.00,0.2750
2775.00,
2786.00,0.2409
2797.00,
2808.00,0.2157
2819.00,
2830.00,0.2007
2841.00,
2852.00,0.1926
2863.00,
2874.00,0.1852
2885.00,
2896.00,0.1810
2907.00,
2918.00,0.1773
2929.00,
2940.00,0.1733
2951.00,
2962.00,0.1707
2973.00,
2984.00,0.1681
2995.00,
3006.00,0.1682
3017.00,
3028.00,0.1664
3039.00,
3050.00,0.1641
3061.00,
3072.00,0.1614
3083.00,
3094.00,0.1600
3105.00,
3116.00,0.1576
3127.00,
3138.00,0.1555
3149.00,
3160.00,0.1539
3171.00,
3182.00,0.1507
3193.00,
3204.00,0.1493
3215.00,
3226.00,0.1476
3237.00,
3248.00,0.1451
3259.00,
3270.00,0.1464
3281.00,
3292.00,0.1425
3300.00,0.1438